ts,ax,ay,az,gx,gy,gz,mx,my,mz
1774514336792,3.514688,2.930503,8.020576,-0.35430184,0.6243043,0.49235737,-19.56,-2.34,-35.76
1774514336813,3.7014358,2.858677,8.00621,-0.41050145,0.49968776,0.4569272,-19.38,-2.28,-35.7
1774514336834,3.6966474,2.7820623,8.09719,-0.5119051,0.54000485,0.36651915,-19.26,-2.46,-35.82
1774514336853,3.3806129,2.6192567,8.101978,-0.6267477,0.75625116,0.29443705,-18.48,-2.22,-35.1
1774514336875,3.1794999,2.542642,8.288726,-0.7171558,0.906524,0.2724459,-18.539999,-1.5,-35.16
1774514336896,3.490746,2.360683,8.863335,-0.75136423,1.1081096,0.24678956,-17.699999,-1.0799999,-35.28
1774514336917,3.0693667,2.2361844,9.217676,-0.42760566,0.7147123,0.018325957,-16.98,-0.35999998,-35.82
1774514336937,2.27928,1.8435353,9.619903,-0.2443461,0.50701815,0.14782938,-17.039999,0.0,-36.36
1774514336958,1.8914193,1.8195933,9.394848,-0.1881465,0.5705481,0.34574974,-15.719999,0.78,-36.899998
1774514336979,2.1930888,2.1021092,9.050082,-0.24556783,0.88697636,0.43249258,-14.759999,2.1599998,-37.62
1774514336999,2.542642,2.3511062,8.863335,-0.3567453,1.1545353,0.41538838,-13.799999,2.6399999,-37.14
1774514337018,2.3080103,2.2026656,8.939949,-0.4251622,1.2009611,0.3885103,-12.48,3.72,-37.44
1774514337039,1.5179238,1.9632454,9.184157,-0.41905355,0.95905846,0.48258355,-12.12,3.72,-37.62
1774514337059,1.067814,1.7669208,9.26556,-0.42149702,0.75869465,0.6365216,-11.16,4.2599998,-37.68
1774514337079,1.2210429,1.8674773,9.088389,-0.5021312,0.79779,0.689056,-9.78,5.4,-38.46
1774514337099,1.5035586,1.8387469,8.987833,-0.6658431,0.94806284,0.593761,-9.54,5.16,-38.82
1774514337120,1.5945383,1.8004397,9.021352,-0.9456194,1.1227703,0.45448375,-7.7999997,7.02,-38.52
1774514337140,1.6376339,1.7525556,9.059659,-1.2681563,1.3182472,0.39950588,-7.62,6.8999996,-37.8
1774514337159,1.0965444,1.5179238,9.279925,-1.5467108,1.2754866,0.40439278,-6.8399997,7.56,-37.5
1774514337180,0.5602432,0.9959879,9.533711,-1.690875,1.3939945,0.39584067,-5.8199997,8.22,-37.38
1774514337199,-0.25857377,0.6464345,9.873688,-1.282817,0.9798279,0.47403142,-5.1,8.58,-37.14
1774514337220,0.4165911,0.45968673,11.535264,-0.77091193,0.8881981,0.45570546,-2.9399998,10.92,-37.44
1774514337241,0.023942016,0.30645782,12.042834,-0.27488935,0.7770206,0.45937067,-1.86,12.36,-36.899998
1774514337262,-0.6991069,0.17238252,11.405977,0.05009095,0.6976081,0.59498274,-0.12,14.7,-36.3
1774514337282,-0.17238252,0.5602432,10.213664,0.17592919,0.75502944,0.52290064,0.78,15.36,-36.18
1774514337303,-0.17238252,0.5602432,10.213664,0.17959438,0.6976081,0.43127087,0.9,15.179999,-36.12
1774514337325,-0.24899697,0.7469909,9.409213,0.040317107,0.593761,0.39706242,1.56,14.94,-36.66
1774514337346,-0.49320555,0.5793968,9.782708,0.034208454,0.2687807,0.3213151,1.9799999,14.5199995,-37.02
1774514337367,-0.5650316,0.30166942,9.744401,0.13561209,0.03176499,0.3323107,2.9399998,13.92,-36.96
1774514337387,-0.4309563,0.44532153,9.921572,0.22235495,-0.14660765,0.37995818,3.8999999,14.16,-36.66
1774514337407,-0.2777274,0.56982,9.77792,0.32742378,-0.20158553,0.39095375,4.3199997,13.799999,-36.3
1774514337428,-0.23942018,0.5554548,9.572019,0.37140608,-0.18325958,0.35796702,4.92,14.639999,-36.84
1774514337447,-0.1388637,0.60333884,9.423578,0.36163223,-0.20158553,0.29443705,5.04,14.5199995,-36.3
1774514337468,0.019153614,0.7134721,9.591172,0.33108896,-0.18203785,0.20647246,4.62,14.16,-36.36
1774514337489,-0.04309563,0.6751649,9.605537,0.32620203,-0.17715092,0.12217305,4.62,14.4,-36.84
1774514337510,-0.019153614,0.80445176,9.65821,0.34574974,-0.1441642,0.06963864,4.38,13.799999,-36.719997
1774514337531,0.110133275,0.8858546,9.481039,0.37507126,-0.15760323,0.073303826,4.14,13.44,-37.02
1774514337551,0.33997664,1.1109096,9.528923,0.39461896,-0.22479841,0.032986723,4.02,13.2,-37.38
1774514337574,0.24420857,1.1109096,9.332599,0.35918877,-0.2565634,-0.05375614,3.84,12.54,-37.38
1774514337595,0.45489833,1.091756,9.682152,0.2773328,-0.3481932,-0.09773844,3.6,11.88,-37.26
1774514337615,0.47405192,0.91458505,9.969456,0.172264,-0.17959438,-0.17715092,3.4199998,11.759999,-37.559998
1774514337634,0.2873042,0.770933,10.132261,0.1600467,-0.087964594,-0.21013765,3.84,11.7,-37.5
1774514337655,0.31124622,0.91458505,9.725247,0.24556783,-0.08552113,-0.22968534,3.6,11.58,-37.5
1774514337684,0.33039984,1.1492168,9.428367,0.19547687,-0.035430185,-0.3213151,3.54,11.82,-37.98
1774514337704,0.19153613,1.4269443,9.672575,0.103847094,0.06352998,-0.37507126,3.4199998,11.5199995,-37.8
1774514337725,0.009576807,1.0342951,9.581595,0.12583824,0.008552114,-0.43371433,2.7,10.86,-37.68
1774514337746,0.023942016,0.89064306,9.610326,0.22602014,-0.06963864,-0.38240165,3.06,10.74,-37.8
1774514337766,-0.033518825,1.0726024,9.313444,0.24190263,-0.13439035,-0.35430184,2.3999999,9.9,-38.04
1774514337785,0.17238252,1.2641385,9.255983,0.18081611,-0.15027285,-0.35063666,2.9399998,10.44,-38.46
1774514337806,0.25378537,1.3455414,9.3661175,0.11484267,-0.14172074,-0.38362336,2.9399998,10.44,-38.46
1774514337825,0.20590134,1.3072342,9.452309,0.11728613,-0.14049901,-0.4251622,2.3999999,10.5,-38.64
1774514337846,0.17717093,1.2258313,9.471462,0.11728613,-0.10262536,-0.4373795,2.3999999,10.74,-38.04
1774514337866,0.090979666,1.1683705,9.428367,0.12583824,-0.08307768,-0.43127087,1.86,10.44,-37.8
1774514337886,0.11971009,1.1061212,9.337387,0.12705997,-0.1160644,-0.40683624,1.4399999,9.9,-38.04
1774514337906,0.19632454,1.1923125,9.399636,0.1001819,-0.10751228,-0.40683624,1.38,9.3,-38.34
1774514337926,0.02873042,1.2066777,9.605537,0.09285152,-0.040317107,-0.4288274,1.1999999,9.3,-38.76
1774514337946,-0.1388637,1.0630256,9.595961,0.14049901,0.037873644,-0.4251622,1.02,9.0,-38.76
1774514337966,-0.17717093,1.115698,9.481039,0.16982053,0.032986723,-0.42271876,1.3199999,9.36,-38.219997
1774514337985,-0.1388637,1.3120226,9.380483,0.16126843,0.002443461,-0.4202753,1.3199999,9.36,-38.219997
1774514338006,-0.2633622,1.2593501,9.466674,0.14294247,0.039095376,-0.41783184,1.14,9.12,-37.92
1774514338026,-0.31603462,1.2258313,9.3661175,0.13805555,0.08307768,-0.37873647,0.84,8.76,-38.399998
1774514338046,-0.320823,1.2449849,9.184157,0.105068825,0.03176499,-0.3408628,0.48,7.98,-38.579998
1774514338066,0.0,1.364695,9.552865,0.039095376,-0.029321533,-0.28955013,0.42,8.4,-39.36
1774514338086,0.038307227,1.3934253,9.768343,0.017104227,-0.002443461,-0.29810223,-0.24,8.34,-39.6
1774514338106,-0.06703765,1.484405,9.77792,0.04886922,0.02687807,-0.31031954,-1.1999999,7.2599998,-40.079998
1774514338127,-0.047884032,1.4556746,9.734824,0.09407325,0.0036651916,-0.312763,-2.22,7.2,-40.68
1774514338147,-0.110133275,1.4221559,9.89763,0.10873401,0.047647487,-0.28099802,-2.3999999,6.7799997,-40.2
1774514338168,-0.1388637,1.3934253,10.060435,0.15515977,0.080634214,-0.24556783,-1.26,7.44,-39.84
1774514338188,-0.1388637,1.460463,9.744401,0.23579398,0.05497787,-0.2443461,-0.42,8.28,-39.6
1774514338209,-0.24420857,1.5562311,9.385271,0.24312437,-0.02321288,-0.24556783,0.71999997,8.76,-39.12
1774514338230,-0.2681506,1.6998832,9.23683,0.13439035,-0.04886922,-0.2284636,0.9,8.4,-38.7
1774514338250,-0.05746084,1.6998832,9.442732,0.05375614,-0.04153884,-0.22235495,0.59999996,7.68,-38.579998
1774514338271,-0.20111294,1.6472107,9.562442,0.042760566,0.010995574,-0.24190263,0.48,6.72,-38.28
1774514338292,-0.30645782,1.7669208,9.490616,0.037873644,0.0036651916,-0.23823744,0.17999999,6.3599997,-38.34
1774514338313,-0.2873042,1.508347,9.619903,0.10262536,-0.14782938,-0.19547687,-0.35999998,6.24,-39.239998
1774514338334,-0.22505496,1.5801731,9.466674,0.13805555,-0.15027285,-0.13927728,-0.29999998,6.66,-39.6
1774514338355,-0.22984336,1.6184803,9.390059,0.12950343,-0.16249016,-0.10140363,-0.12,7.44,-39.54
1774514338375,-0.17238252,1.7381904,9.495404,0.096516706,-0.09773844,-0.09773844,-0.71999997,7.02,-39.36
1774514338395,-0.10534488,1.4748282,9.485827,0.111177474,-0.13316862,-0.10629055,-0.59999996,7.02,-39.12
1774514338415,-0.04309563,1.6184803,9.543288,0.16982053,-0.14538592,-0.087964594,-0.48,7.02,-38.82
1774514338435,0.07182605,1.7477672,9.337387,0.19547687,-0.21013765,-0.047647487,-0.78,6.96,-38.82
1774514338456,0.095768064,1.8818425,9.471462,0.119729586,-0.14538592,-0.06352998,-0.17999999,7.3799996,-39.059998
1774514338477,-0.08619126,1.8339585,9.5385,0.06841691,-0.07696902,-0.07941248,-0.35999998,7.02,-39.059998
1774514338497,0.0,1.958457,9.634268,0.07452556,0.013439035,-0.07086037,-0.9,6.42,-39.0
1774514338517,-0.062249243,1.9632454,9.648633,0.12705997,0.1160644,-0.0720821,-1.14,5.94,-38.879997
1774514338537,-0.22505496,2.0254946,9.552865,0.18081611,0.15393804,-0.07574729,-1.26,5.46,-38.94
1774514338557,-0.23463176,2.2026656,9.615114,0.1966986,0.19058995,-0.095294975,-0.9,5.7,-39.239998
1774514338578,-0.33518824,2.0111294,9.677363,0.23579398,0.26145032,-0.07574729,-0.71999997,5.58,-39.18
1774514338601,-0.4309563,1.6807296,8.916007,0.07696902,0.018325957,-0.036651913,-0.17999999,6.0,-39.6
1774514338623,-0.23463176,1.9249382,9.643845,0.021991149,-0.119729586,0.018325957,0.06,6.24,-39.6
1774514338644,-0.14844051,2.2266076,9.648633,0.07452556,-0.07696902,0.021991149,0.24,6.18,-39.6
1774514338667,-0.1436521,2.1978772,9.385271,0.087964594,0.0012217305,0.009773844,0.42,6.12,-40.2
1774514338687,-0.12928689,2.1308396,9.23683,0.065973446,0.04153884,0.009773844,0.9,6.54,-40.62
1774514338706,-0.2777274,2.2170308,9.227253,-0.0061086523,-0.028099801,0.010995574,0.65999997,6.6,-40.14
1774514338727,-0.4165911,2.2122424,9.9550905,0.018325957,-0.12461651,0.07086037,0.48,5.8799996,-39.84
1774514338747,-0.12928689,2.2122424,9.974244,0.172264,0.0,0.12339478,0.53999996,5.8199997,-39.66
1774514338771,-0.12928689,2.3415294,8.37013,0.29565877,0.17715092,0.06841691,0.0,4.8599997,-39.78
1774514338791,-0.12449849,2.1404164,8.231265,0.0720821,0.12095132,0.02321288,-0.29999998,4.02,-39.96
1774514338811,-0.110133275,2.087744,9.289502,-0.16615535,-0.0061086523,0.0061086523,-0.29999998,4.2,-40.079998
1774514338832,-0.1436521,2.183512,9.911995,-0.056199603,-0.028099801,-0.0036651916,-0.48,3.78,-39.96
1774514338852,-0.11971009,2.1547816,9.323022,0.065973446,0.08552113,-0.014660766,-0.65999997,3.84,-39.36
1774514338872,-0.076614454,2.0494366,8.916007,-0.03176499,0.15882497,-0.02687807,-0.24,4.38,-39.42
1774514338891,-0.24899697,2.0638018,9.131485,-0.14782938,0.095294975,-0.037873644,0.29999998,5.04,-39.3
1774514338912,-0.40222588,2.0638018,9.155427,-0.14905111,0.02321288,0.0012217305,0.35999998,5.52,-39.42
1774514338933,-0.29688102,2.0973208,9.006987,-0.16982053,-0.018325957,0.059864793,0.53999996,5.58,-39.6
1774514338952,-0.17717093,1.9728222,8.887277,-0.21868975,-0.010995574,0.07574729,0.65999997,5.8199997,-39.96
1774514338973,-0.047884032,1.9440918,8.791509,-0.29810223,0.035430185,0.059864793,0.48,5.7,-40.14
1774514338992,-0.07182605,1.8962077,8.719683,-0.41172317,0.10140363,0.030543262,0.9,5.8799996,-40.14
1774514339013,-0.009576807,1.8435353,8.801085,-0.49357912,0.15515977,0.0061086523,0.71999997,6.0,-40.079998
1774514339032,-0.019153614,1.7046716,8.781932,-0.59864795,0.25411993,-0.021991149,0.9,6.3599997,-39.6
1774514339052,-0.04309563,1.532289,8.901642,-0.75136423,0.39828414,-0.02687807,0.59999996,6.48,-39.6
1774514339073,0.02873042,1.2018893,8.90643,-0.95905846,0.56199604,0.0,0.35999998,6.72,-39.3
1774514339093,0.062249243,0.81402856,8.868123,-1.1899655,0.72326446,0.04153884,0.9,7.5,-39.36
1774514339113,-0.16280572,0.40701428,9.308656,-1.3927728,0.80878556,0.07696902,1.3199999,8.22,-38.7
1774514339133,-0.01436521,0.4405331,9.840169,-1.5503759,0.9602802,0.119729586,1.86,9.0,-38.46
1774514339153,-0.047884032,0.44532153,10.5680065,-1.4501941,0.9126327,0.06963864,2.46,10.0199995,-37.8
1774514339174,0.30166942,1.4413095,11.018116,-1.0995574,1.001819,0.061086524,3.24,11.639999,-37.14
1774514339194,-0.10055647,0.37349546,11.573571,-0.548557,0.85154617,-0.2565634,3.48,12.54,-36.719997
1774514339214,-1.0342951,0.20111294,9.911995,-0.23090707,1.1081096,-0.52412236,4.3199997,13.559999,-36.059998
1774514339235,-1.9153614,-0.272939,9.768343,-0.17470746,1.0604621,-0.65118235,5.2799997,14.759999,-36.0
1774514339255,-2.135628,-0.047884032,9.572019,-0.18448131,0.88331115,-0.7134906,6.0,15.299999,-35.64
1774514339277,-2.207454,0.023942016,10.204087,-0.080634214,0.73792523,-0.8576548,6.8399997,16.02,-36.18
1774514339298,-2.873042,0.05267244,9.835381,0.047647487,0.57787853,-0.86009824,7.3199997,16.32,-36.18
1774514339318,-3.4955344,-0.22505496,9.586384,0.119729586,0.29077184,-0.63407815,6.96,15.719999,-35.82
1774514339339,-3.4572272,-0.81881696,9.255983,0.1600467,0.118507855,-0.52656585,7.2599998,15.719999,-35.7
1774514339359,-3.643975,-0.7613561,9.80665,0.3213151,0.0,-0.3848451,7.08,15.719999,-35.52
1774514339379,-3.2130187,-0.023942016,9.797073,0.4642576,-0.032986723,-0.37507126,7.02,15.24,-35.579998
1774514339399,-2.6479871,0.6464345,9.165004,0.43493605,-0.081855945,-0.4642576,6.72,15.059999,-36.48
1774514339419,-2.4708161,1.0103531,8.264784,0.2443461,-0.31764993,-0.54244834,6.6,14.94,-36.36
1774514339440,-3.074155,1.0055647,8.2169,0.04886922,-0.41783184,-0.4728097,6.3599997,14.4,-36.18
1774514339461,-3.4093432,0.8714894,9.054871,0.008552114,-0.5412266,-0.3555236,6.18,14.58,-36.3
1774514339482,-3.217807,0.9720459,9.255983,-0.04520403,-0.47647488,-0.30665436,6.54,14.759999,-36.0
1774514339503,-2.9161377,0.37349546,9.299079,-0.05009095,-0.48258355,-0.2883284,6.12,14.46,-35.94
1774514339523,-3.2992098,0.47405192,9.801862,-0.10629055,-0.49357912,-0.19058995,5.58,14.34,-36.3
1774514339544,-2.9352913,0.35913026,10.371682,-0.12095132,-0.31642818,-0.15393804,5.1,14.46,-36.42
1774514339565,-2.6719291,-0.11971009,10.572795,-0.018325957,-0.2773328,-0.029321533,4.02,14.099999,-35.94
1774514339586,-2.2457612,-0.33518824,10.46745,0.118507855,-0.35430184,-0.009773844,3.24,13.74,-36.6
1774514339607,-2.3319526,-0.1340753,10.433931,0.26145032,-0.4361578,-0.02565634,2.7,13.86,-35.82
1774514339627,-1.9297266,0.4405331,10.304645,0.37873647,-0.43371433,0.004886922,2.3999999,14.099999,-36.239998
1774514339649,-1.7812861,0.545878,10.333375,0.516792,-0.50701815,-0.02565634,2.34,14.28,-36.54
1774514339670,-2.0254946,0.31124622,9.615114,0.56199604,-0.535118,-0.0842994,1.86,13.62,-36.48
1774514339691,-2.0207062,0.7661445,9.490616,0.52656585,-0.6096435,-0.015882496,1.5,13.139999,-36.96
1774514339712,-1.8435353,1.0869676,9.428367,0.47158796,-0.6047566,0.017104227,1.14,12.54,-36.78
1774514339732,-1.6567876,0.7757214,9.394848,0.3408628,-0.5839872,0.02443461,0.17999999,11.46,-36.66
1774514339754,-1.958457,0.5746084,9.524135,0.2443461,-0.5900958,0.07574729,-0.06,11.58,-36.96
1774514339777,-1.6424223,0.63206923,9.840169,0.2919936,-0.7367035,0.22479841,-0.96,10.74,-37.2
1774514339798,-1.1923125,0.7613561,9.3661175,0.36651915,-0.7452556,0.30909783,-0.9,10.92,-37.62
1774514339819,-0.866701,0.8283938,8.437167,0.28221974,-0.7623598,0.36285394,-1.0799999,11.28,-37.38
1774514339839,-0.34476504,0.8331822,8.135497,-0.36651915,-1.0995574,0.4288274,-1.62,10.98,-37.02
1774514339859,-0.06703765,0.7374141,8.719683,-0.56688297,-1.0677924,0.5644395,-1.92,10.98,-36.66
1774514339880,0.06703765,0.8523358,9.576807,-0.5412266,-0.79412484,0.7330383,-2.8799999,10.8,-36.96
1774514339901,0.4261679,0.35434186,9.92636,-0.40561453,-0.59620446,0.79412484,-3.6,10.679999,-37.32
1774514339921,1.1348516,-0.15322891,10.108319,-0.2846632,-0.46914452,0.6939429,-3.6,11.639999,-37.32
1774514339942,1.7956513,-0.41180268,9.821015,-0.21624629,-0.31764993,0.4447099,-4.08,12.179999,-37.32
1774514339962,1.4748282,0.019153614,9.605537,-0.064751714,-0.17837265,0.22113322,-4.7999997,12.42,-36.78
1774514339982,0.7469909,0.25857377,9.270349,-0.05131268,0.12461651,0.19425514,-5.58,12.36,-36.42
1774514340002,0.5363012,0.35913026,9.481039,-0.009773844,0.028099801,0.23335053,-6.3599997,11.88,-36.059998
1774514340023,1.0342951,0.80445176,9.275137,0.064751714,-0.007330383,0.27488935,-7.2,11.82,-35.82
1774514340042,1.0486604,0.82360536,9.030929,0.056199603,0.04520403,0.21868975,-7.62,11.759999,-35.7
1774514340063,0.91937345,0.78050977,9.14585,-0.015882496,0.037873644,0.16371189,-7.14,11.82,-35.219997
1774514340084,0.7182605,0.8858546,9.595961,-0.07696902,0.064751714,0.13194689,-7.14,11.82,-35.34
1774514340104,0.62728083,0.6655881,9.739613,-0.02687807,0.061086524,0.13805555,-6.6,11.88,-35.1
1774514340125,0.61291564,0.5554548,9.715671,0.10873401,0.004886922,0.18203785,-5.8199997,12.42,-34.86
1774514340145,0.8571242,0.63206923,9.380483,0.18203785,-0.04886922,0.21746802,-5.7599998,12.48,-35.219997
1774514340165,0.89064306,0.6943185,9.203311,0.12705997,-0.06841691,0.204029,-5.64,12.84,-35.34
1774514340185,0.7661445,0.6464345,9.217676,0.035430185,-0.052534413,0.18325958,-5.8199997,13.0199995,-35.579998
1774514340206,0.61770403,0.6799533,9.375694,-0.05009095,-0.08674286,0.13194689,-5.7599998,12.54,-35.64
1774514340227,0.641646,0.8331822,9.691729,-0.021991149,-0.06352998,0.12950343,-5.8199997,12.48,-35.88
1774514340249,0.5267244,0.7278373,9.864111,0.096516706,-0.032986723,0.080634214,-5.4,12.599999,-35.579998
1774514340270,0.31124622,1.1827357,10.237606,0.23701571,0.14294247,0.04520403,-5.58,12.66,-35.52
1774514340291,0.79008657,1.2593501,9.792285,0.44593164,0.7476991,0.04642576,-5.22,13.139999,-35.1
1774514340313,0.93852705,0.89064306,8.959103,0.52290064,0.7110472,0.10873401,-5.22,12.24,-35.82
1774514340335,0.41180268,1.7669208,9.083601,0.37140608,0.33353242,0.103847094,-4.98,11.82,-36.12
1774514340355,0.4405331,1.7286136,8.963891,0.21135938,0.29077184,0.04153884,-4.2599998,11.7,-36.6
1774514340375,-0.009576807,1.6472107,9.346964,0.10140363,0.36651915,0.06841691,-4.2,11.099999,-37.14
1774514340396,-0.40701428,1.2497733,9.864111,-0.02565634,0.59864795,0.32620203,-3.48,11.28,-36.6
1774514340418,-0.37349546,1.2497733,9.911995,0.064751714,0.50823987,0.5204572,-3.06,11.46,-36.48
1774514340438,-0.047884032,1.7812861,9.768343,0.49357912,0.04153884,0.57787853,-3.06,11.219999,-36.12
1774514340458,0.19632454,2.72939,9.56723,0.56321776,-0.043982297,0.39706242,-2.1,11.46,-36.42
1774514340478,0.45489833,3.3087866,8.949526,0.56321776,-0.043982297,0.39706242,-1.8,11.28,-37.2
1774514340499,0.30166942,2.992752,8.954314,0.19547687,0.0720821,0.17104226,-1.3199999,10.74,-37.5
1774514340520,-0.05267244,2.552219,8.872911,0.05375614,0.035430185,0.25534168,-0.65999997,11.099999,-37.739998
1774514340540,-0.0047884034,2.6527755,9.500193,-0.007330383,0.08552113,0.3042109,-0.96,10.08,-37.92
1774514340560,0.08619126,2.7820623,9.80665,-0.010995574,0.12095132,0.32742378,-1.0799999,9.54,-36.96
1774514340582,0.090979666,2.4516625,9.911995,-0.09773844,0.13072516,0.30298916,-0.48,10.26,-36.899998
1774514340602,0.15801731,2.3175871,10.151415,-0.19914207,0.11728613,0.26145032,-0.53999996,9.84,-37.38
1774514340624,0.33039984,2.030283,10.414778,-0.23090707,0.0061086523,0.21746802,0.06,10.679999,-36.84
1774514340645,0.47884035,1.7381904,10.778696,-0.23090707,-0.07941248,0.17592919,0.84,11.219999,-37.32
1774514340666,0.47884035,1.5179238,10.773908,-0.23457226,-0.12950343,0.12705997,0.53999996,10.92,-37.079998
1774514340686,0.31124622,0.7134721,10.951078,-0.344528,-0.1563815,0.080634214,0.71999997,10.8,-37.02
1774514340705,0.21068975,0.062249243,11.736377,-0.45448375,-0.17470746,0.05009095,0.53999996,11.219999,-36.78
1774514340726,0.35434186,-0.45968673,12.076353,-0.21502456,-0.17715092,0.0061086523,0.65999997,11.5199995,-36.42
1774514340746,0.22505496,-0.6607997,11.066,0.28221974,-0.14782938,-0.028099801,0.65999997,11.5199995,-36.42
1774514340767,-0.062249243,-0.78050977,9.141062,0.64751714,-0.12461651,-0.0061086523,-0.12,11.5199995,-36.18
1774514340789,-0.30166942,-0.78050977,7.6949644,0.5497787,-0.14294247,0.052534413,-0.06,11.219999,-36.42
1774514340808,-0.39264908,-0.641646,7.953538,0.21135938,-0.20525073,0.06719518,-0.35999998,10.92,-36.899998
1774514340829,-0.6799533,-0.9911995,8.748413,-0.07696902,-0.065973446,0.040317107,-0.24,10.62,-36.6
1774514340850,-1.1492168,-1.4413095,9.44752,-0.23335053,0.14905111,0.032986723,-0.35999998,10.44,-36.3
1774514340870,-1.2258313,-1.6998832,9.763555,-0.21013765,0.19547687,0.07086037,-0.35999998,10.44,-36.18
1774514340891,-0.91458505,-1.2737153,9.715671,-0.12461651,0.16982053,0.103847094,-0.65999997,10.2,-35.88
1774514340913,-0.6799533,-0.8762778,9.370906,-0.10140363,0.15393804,0.089186326,-0.42,10.62,-35.94
1774514340934,-0.5602432,-0.50278234,9.131485,-0.14294247,0.13194689,0.095294975,0.0,11.16,-35.219997
1774514340955,-0.61770403,-0.32561144,9.476251,-0.16493362,0.061086524,0.13927728,0.24,11.219999,-35.16
1774514340976,-0.4261679,-0.10055647,9.576807,-0.111177474,-0.02565634,0.19425514,0.71999997,11.28,-35.399998
1774514340999,-0.1340753,0.29688102,8.825027,-0.1685988,-0.17470746,0.10262536,0.35999998,10.74,-35.34
1774514341020,0.18195933,0.4261679,9.399636,-0.30298916,0.056199603,0.008552114,-0.17999999,10.139999,-35.76
1774514341040,-0.25857377,0.12449849,9.667787,-0.22602014,0.16615535,-0.0061086523,-0.29999998,10.559999,-36.18
1774514341059,-0.25857377,0.12449849,9.667787,-0.14294247,0.15149458,-0.02565634,-0.65999997,10.5,-36.18
1774514341079,-0.50278234,-0.062249243,9.284714,-0.15271631,0.095294975,-0.043982297,-0.06,11.46,-36.239998
1774514341100,-0.7326257,-0.18195933,8.858546,-0.18936823,0.081855945,-0.073303826,0.06,11.94,-36.3
1774514341134,-0.81881696,-0.18674773,8.901642,-0.30665436,0.10262536,-0.07819075,-0.29999998,11.5199995,-36.0
1774514341153,-0.8331822,-0.2633622,9.102755,-0.43004912,0.14660765,-0.057421334,-0.78,11.34,-36.239998
1774514341174,-0.8283938,-0.2681506,9.725247,-0.5204572,0.18692477,-0.034208454,-1.0799999,10.98,-35.46
1774514341193,-0.94331545,-0.33039984,9.825804,-0.5143485,0.16493362,-0.021991149,-0.71999997,11.4,-34.62
1774514341214,-0.82360536,-0.34955344,10.108319,-0.44715336,-0.0036651916,0.03176499,0.12,12.9,-34.8
1774514341233,-0.58418524,-0.272939,10.28549,-0.41905355,-0.061086524,0.06352998,0.78,13.44,-34.26
1774514341254,-0.24420857,-0.11492168,10.831368,-0.43371433,0.02443461,0.080634214,1.4399999,14.94,-34.98
1774514341275,-0.08140286,0.10055647,11.018116,-0.344528,0.096516706,0.05009095,1.3199999,15.299999,-34.92
1774514341295,-0.038307227,0.36391866,11.003751,-0.1441642,0.10140363,0.0012217305,0.53999996,14.82,-34.92
1774514341315,0.062249243,0.770933,10.716447,0.12950343,0.080634214,-0.039095376,0.12,15.059999,-34.8
1774514341335,0.15322891,1.3694834,9.739613,0.38606682,0.10873401,-0.09040806,0.0,14.639999,-34.26
1774514341356,0.11492168,1.3024458,9.050082,-0.10262536,0.12339478,-0.2687807,0.12,14.82,-34.62
1774514341375,-0.16759412,0.29688102,10.228029,-0.10262536,0.12339478,-0.2687807,0.42,15.0,-34.44
1774514341396,0.0,-0.25378537,11.33894,0.16126843,-0.014660766,-0.31398472,0.53999996,14.7,-34.5
1774514341416,0.22505496,-0.44532153,11.008539,0.16126843,-0.014660766,-0.31398472,0.42,14.28,-34.8
1774514341436,0.6751649,-0.06703765,9.370906,0.84788096,-0.29077184,-0.3200934,0.29999998,14.219999,-34.44
1774514341457,1.0247183,0.41180268,7.7667904,0.7464773,-0.5766568,-0.3494149,-0.17999999,13.38,-34.5
1774514341476,1.3311762,1.043872,7.445967,0.13194689,-0.30665436,-0.37507126,-0.48,13.08,-34.38
1774514341498,1.2497733,1.4413095,7.867347,-0.44226643,0.095294975,-0.41538838,-0.71999997,12.719999,-34.02
1774514341518,0.4261679,0.7326257,8.48984,-0.79534656,0.38728857,-0.4288274,-1.14,11.88,-33.96
1774514341539,-0.60333884,0.49799395,9.629479,-0.7635816,0.4361578,-0.37018433,-0.9,12.42,-33.48
1774514341559,-1.1109096,0.22026655,10.093954,-0.41416663,0.17104226,-0.26267207,-0.84,12.84,-33.48
1774514341579,-1.2162545,0.14844051,9.725247,-0.062308256,-0.15882497,-0.14172074,-0.84,13.5,-33.719997
1774514341599,-0.8571242,0.4213795,8.7053175,0.034208454,-0.41905355,-0.105068825,-0.71999997,14.04,-33.54
1774514341619,-0.22505496,0.79487497,7.991845,-0.13439035,-0.44226643,-0.105068825,-1.5,13.44,-33.899998
1774514341639,0.04309563,0.8571242,7.824251,-0.26145032,-0.38362336,-0.0842994,-1.8,13.259999,-34.32
1774514341659,0.31124622,0.92895025,8.307879,-0.312763,-0.19792034,-0.043982297,-2.82,12.42,-34.32
1774514341680,0.78050977,1.1348516,8.829816,-0.40683624,-0.02687807,0.014660766,-2.82,13.0199995,-34.2
1774514341700,0.79487497,1.0582372,9.232041,-0.45937067,0.040317107,0.02076942,-2.6399999,13.74,-34.02
1774514341720,0.7038953,1.0630256,9.572019,-0.49968776,0.017104227,0.019547688,-3.3,13.259999,-33.54
1774514341740,0.7038953,1.0630256,9.572019,-0.5338962,-0.040317107,0.02443461,-2.9399998,13.92,-33.12
1774514341761,0.272939,0.89064306,11.046846,-0.39461896,-0.019547688,0.05375614,-3.0,14.16,-33.48
1774514341823,-0.6751649,1.13964,9.974244,0.32620203,0.15393804,0.23090707,-3.48,14.82,-32.579998
1774514341843,-0.79487497,1.6328455,9.275137,0.46181414,0.13316862,0.2932153,-3.78,14.28,-32.64
1774514341863,-0.49320555,1.910573,8.939949,0.3811799,0.0,0.2968805,-3.84,13.679999,-31.98
1774514341884,0.12928689,1.6280571,9.878476,0.13072516,-0.19058995,0.2846632,-3.84,13.679999,-31.98
1774514341905,0.91458505,1.7717092,11.176133,0.010995574,-0.31031954,0.3555236,-3.8999999,13.679999,-31.439999
1774514341925,1.5897499,1.2976574,11.951855,0.009773844,-0.2883284,0.376293,-3.12,13.799999,-31.08
1774514341946,1.364695,0.5410896,12.804191,-0.14172074,-0.111177474,0.29443705,-3.36,13.98,-31.199999
1774514341966,0.8475474,0.30166942,13.771448,-0.12583824,0.021991149,0.23701571,-3.3,14.04,-30.779999
1774514341987,0.15801731,-0.35434186,13.369223,0.1881465,0.052534413,0.11484267,-3.4199998,14.7,-30.48
1774514342008,0.076614454,-1.0199299,12.382812,0.43860126,-0.017104227,0.06719518,-4.08,14.04,-30.0
1774514342028,-0.20590134,-2.1404164,11.597513,0.4972443,-0.1160644,0.04642576,-4.02,13.679999,-29.519999
1774514342048,-0.12449849,-2.0494366,10.951078,0.7122689,-0.16249016,0.12583824,-3.84,13.139999,-29.76
1774514342068,-0.08619126,-2.2361844,9.768343,0.91629785,-0.10629055,0.14538592,-3.1799998,12.36,-30.24
1774514342088,-0.36870706,-2.5330653,8.619126,0.84421575,-0.04642576,0.13194689,-2.34,12.24,-30.9
1774514342109,-0.51714754,-2.5330653,8.528147,0.59498274,-0.06352998,0.13561209,-1.8,12.36,-31.38
1774514342129,-0.5554548,-2.4899697,8.767567,0.36285394,-0.064751714,0.12583824,-1.62,11.82,-31.439999
1774514342151,-0.5793968,-2.2649148,8.868123,0.2932153,-0.08674286,0.13194689,-1.92,11.219999,-31.439999
1774514342172,-0.34955344,-1.7142484,8.820239,0.28955013,-0.081855945,0.13805555,-2.28,10.98,-32.16
1774514342192,0.01436521,-1.0055647,8.5473,0.27977628,-0.07086037,0.1160644,-2.6399999,10.2,-31.859999
1774514342213,0.35913026,-0.40701428,8.355764,0.2761111,-0.10262536,0.059864793,-3.06,9.54,-31.8
1774514342234,0.6943185,-0.01436521,8.279149,0.24556783,-0.14049901,-0.013439035,-2.82,9.719999,-32.04
1774514342255,0.770933,0.076614454,8.508993,0.18570304,-0.13439035,-0.0842994,-2.82,9.78,-31.8
1774514342275,0.48362875,-0.047884032,8.671799,0.06963864,-0.035430185,-0.105068825,-2.76,9.66,-31.92
1774514342295,0.12928689,-0.14844051,8.791509,-0.012217305,0.0061086523,-0.09285152,-2.82,9.84,-31.679998
1774514342316,-0.320823,-0.35434186,9.11712,-0.05009095,0.057421334,-0.089186326,-3.36,8.94,-31.5
1774514342336,-0.6895301,-0.4165911,9.069236,0.015882496,0.008552114,-0.062308256,-3.48,8.76,-31.08
1774514342358,-0.8571242,-0.22026655,9.083601,0.017104227,-0.034208454,-0.019547688,-3.84,8.4,-30.72
1774514342379,-1.0247183,-0.2777274,8.825027,-0.06841691,-0.11728613,0.06352998,-3.8999999,8.16,-30.84
1774514342403,-0.48841715,0.1340753,9.169792,-0.33475417,0.0,0.089186326,-3.6,8.34,-30.84
1774514342423,-0.4309563,0.023942016,9.797073,-0.50579643,0.1685988,0.10262536,-3.54,8.099999,-30.84
1774514342442,-0.31603462,0.20590134,10.500969,-0.50335294,0.23579398,0.10751228,-3.0,9.0,-31.26
1774514342464,-0.30645782,0.24420857,10.601525,-0.3555236,0.21013765,0.10873401,-2.52,10.2,-31.08
1774514342484,-0.15801731,0.44532153,10.113108,-0.1881465,0.13194689,0.11728613,-2.34,10.5,-31.38
1774514342511,0.01436521,0.5363012,9.931149,-0.15760323,0.10629055,0.07941248,-2.3999999,10.38,-30.96
1774514342532,0.16280572,0.62728083,9.931149,-0.14905111,0.13316862,0.02321288,-2.52,10.2,-30.539999
1774514342552,0.45489833,0.6703765,9.9550905,-0.056199603,0.1160644,-0.039095376,-2.9399998,10.559999,-30.599998
1774514342571,0.7086837,0.8523358,9.763555,0.119729586,0.04642576,-0.118507855,-3.0,10.26,-30.72
1774514342592,0.866701,0.82360536,9.179369,0.3494149,-0.039095376,-0.19914207,-3.54,10.0199995,-31.08
1774514342613,0.9528923,0.31124622,8.5473,0.41905355,-0.14049901,-0.2565634,-3.8999999,9.78,-31.14
1774514342633,1.0390835,-0.32561144,8.590396,0.26145032,-0.23823744,-0.26633725,-4.02,9.0,-30.9
1774514342653,1.2641385,-0.11971009,8.925584,0.16249016,-0.1881465,-0.23945917,-4.08,9.48,-30.72
1774514342673,1.2258313,0.11492168,9.255983,0.13439035,0.05009095,-0.21502456,-3.54,9.96,-30.48
1774514342692,1.1587936,0.59855044,8.939949,-0.035430185,0.2773328,-0.18448131,-3.48,10.139999,-30.48
1774514342713,1.0007763,1.2306197,9.011775,-0.36041048,0.24678956,-0.23823744,-3.24,10.2,-30.779999
1774514342732,0.521936,1.2641385,9.878476,-0.6768387,0.26267207,-0.3005457,-3.36,9.3,-30.539999
1774514342752,-0.07182605,1.1252748,10.644621,-0.8857546,0.3481932,-0.267559,-3.8999999,8.76,-30.179998
1774514342773,-0.7182605,1.0534488,11.33894,-0.98471475,0.47036624,-0.1600467,-3.54,9.12,-29.46
1774514342793,-0.8619126,1.2593501,11.616667,-0.8246681,0.43127087,-0.111177474,-3.54,9.599999,-28.859999
1774514342813,-0.9576807,1.043872,11.133038,-0.5375614,0.40317106,-0.1282817,-3.24,10.92,-28.8
1774514342834,-1.043872,0.8283938,10.175357,-0.27000242,0.34208453,-0.12583824,-3.12,11.099999,-28.92
1774514342854,-0.5410896,0.9528923,9.054871,0.004886922,0.056199603,-0.10873401,-2.7,11.34,-29.22
1774514342874,-0.07182605,0.6847417,8.700529,0.30665436,-0.25411993,-0.07086037,-2.34,11.94,-29.039999
1774514342894,0.21068975,0.80924016,7.9631147,0.28344148,-0.16249016,0.02076942,-1.92,12.179999,-28.68
1774514342916,0.4261679,0.92895025,7.326257,0.08307768,-0.1441642,-0.017104227,-1.26,13.0199995,-28.32
1774514342936,0.58418524,0.9864111,7.4028716,0.08307768,-0.1441642,-0.017104227,-1.38,12.9,-27.96
1774514342956,0.60333884,0.8475474,7.848193,-0.31520647,-0.039095376,-0.061086524,-1.74,12.3,-28.26
1774514342977,0.6751649,0.7326257,8.485051,-0.41538838,0.014660766,-0.05375614,-2.1,12.0,-27.9
1774514342997,0.80924016,0.8379706,9.284714,-0.40683624,0.042760566,-0.05009095,-2.3999999,11.34,-27.599998
1774514343017,0.49320555,0.8858546,9.892841,-0.32253686,-0.04520403,-0.030543262,-2.7,11.639999,-27.539999
1774514343037,0.32561144,1.043872,10.333375,-0.1563815,-0.12950343,-0.02443461,-2.34,11.94,-27.0
1774514343058,0.12449849,1.1875241,10.821792,0.04642576,-0.119729586,0.0061086523,-2.34,11.759999,-27.0
1774514343079,0.15801731,1.5179238,10.496181,0.17104226,-0.057421334,0.014660766,-2.3999999,12.24,-27.18
1774514343099,0.15801731,1.5179238,10.496181,0.20158553,0.018325957,0.06841691,-2.28,12.24,-27.24
1774514343121,-0.31124622,1.7142484,9.998186,0.21502456,0.03176499,0.12583824,-2.34,12.42,-27.06
1774514343140,-0.24420857,1.6472107,9.940725,0.12950343,-0.008552114,0.15271631,-2.1,12.48,-26.88
1774514343161,-0.2777274,1.0965444,10.860099,-0.1160644,-0.037873644,0.14049901,-1.9799999,12.0,-26.82
1774514343183,-0.20111294,0.59855044,11.927913,-0.29932398,0.02443461,0.15027285,-2.04,11.7,-26.22
1774514343204,0.16280572,0.038307227,12.593501,-0.30665436,0.007330383,0.12461651,-2.9399998,10.92,-26.099998
1774514343225,0.18674773,-1.0773908,12.756307,-0.18448131,-0.035430185,0.05131268,-2.6399999,10.98,-25.5
1774514343246,-0.10534488,-2.0590134,12.636597,-0.11484267,-0.05375614,0.002443461,-2.1,11.4,-25.38
1774514343267,-0.023942016,-2.4133554,12.105083,0.06352998,-0.14049901,0.042760566,-0.59999996,12.42,-25.14
1774514343286,0.20590134,-2.6719291,11.15698,0.3726278,-0.24801129,0.09040806,-0.84,12.36,-24.9
1774514343308,0.25857377,-2.4277205,9.945514,0.6291912,-0.21746802,0.13805555,-0.84,12.54,-25.26
1774514343328,-0.10534488,-2.2266076,8.686164,0.7305948,-0.16982053,0.13561209,-1.0799999,12.36,-25.439999
1774514343349,-0.7230489,-2.1452048,7.704541,0.63163465,-0.12095132,0.13072516,-0.9,12.12,-25.56
1774514343370,-0.91937345,-2.0829554,7.599196,0.28588495,-0.1282817,0.14660765,-1.0799999,11.16,-25.68
1774514343392,-0.81881696,-2.135628,8.259995,-0.008552114,-0.089186326,0.15515977,-1.02,11.16,-25.859999
1774514343413,-0.91458505,-2.1164744,8.66701,-0.14538592,-0.0036651916,0.16126843,-1.1999999,10.62,-26.22
1774514343434,-0.62728083,-1.7956513,8.834604,-0.14660765,-0.06352998,0.18081611,-1.4399999,10.2,-26.22
1774514343455,-0.29688102,-1.5035586,8.959103,-0.08674286,-0.10751228,0.17715092,-1.1999999,10.74,-26.22
1774514343475,-0.076614454,-1.2066777,8.686164,-0.065973446,-0.105068825,0.19425514,-1.0799999,10.5,-25.68
1774514343496,-0.009576807,-0.91458505,8.7771435,-0.065973446,-0.105068825,0.19425514,-0.84,10.8,-25.26
1774514343516,-0.11971009,-0.81881696,9.212888,-0.22724187,-0.062308256,0.25778514,-0.96,10.74,-25.26
1774514343536,-0.038307227,-0.47884035,9.32781,-0.36285394,0.19303341,0.19914207,-1.26,10.5,-25.32
1774514343556,-0.34476504,-0.47884035,9.816227,-0.3115413,0.25289822,0.18203785,-1.5,10.26,-25.5
1774514343577,-0.6847417,-0.641646,10.012551,-0.1441642,0.19181168,0.1966986,-1.4399999,10.2,-25.92
1774514343598,-0.5363012,-0.641646,9.289502,-0.06841691,0.111177474,0.18448131,-1.0799999,10.8,-25.68
1774514343618,-0.272939,-0.6895301,9.078813,-0.105068825,0.0720821,0.15515977,-1.0799999,10.559999,-25.5
1774514343639,-0.22026655,-0.59855044,9.054871,-0.19547687,0.042760566,0.12339478,-0.48,11.34,-25.08
1774514343660,-0.07182605,-0.61770403,9.696517,-0.29932398,0.12461651,0.08307768,0.0,12.059999,-24.48
1774514343680,-0.076614454,-0.770933,9.787497,-0.32498032,0.23335053,0.073303826,0.17999999,12.12,-24.42
1774514343700,-0.090979666,-0.8523358,9.964667,-0.30176744,0.22357668,0.0720821,0.24,12.66,-24.48
1774514343720,0.07182605,-0.770933,10.175357,-0.22235495,0.14782938,0.06841691,0.0,12.24,-24.359999
1774514343739,0.19153613,-0.5650316,10.314221,-0.13316862,0.11484267,0.043982297,-0.06,11.94,-24.24
1774514343760,-0.05746084,-0.5602432,10.625467,-0.002443461,0.21502456,0.007330383,0.06,12.059999,-24.0
1774514343780,-0.20590134,-0.19632454,10.093954,0.29443705,0.22968534,0.012217305,1.02,12.9,-23.82
1774514343800,-0.33997664,-0.009576807,9.203311,0.50335294,0.0842994,-0.02687807,1.26,12.9,-24.18
1774514343820,-0.33518824,-0.38307226,9.141062,0.39095375,-0.08307768,-0.118507855,1.0799999,12.78,-24.3
1774514343841,-0.16280572,-1.0103531,9.849746,0.15149458,-0.15515977,-0.19792034,1.38,12.66,-24.119999
1774514343861,0.51235914,-0.94810385,10.247183,0.11362094,-0.20158553,-0.23945917,0.96,11.82,-24.42
1774514343882,1.2545617,-0.34476504,9.753978,0.4447099,-0.34208453,-0.28344148,1.0799999,11.88,-24.18
1774514343902,2.006341,-0.01436521,8.690952,0.6658431,-0.46792278,-0.32253686,1.38,12.12,-24.3
1774514343922,2.3175871,0.46447513,8.360553,0.48502702,-0.48380527,-0.35063666,1.0799999,11.82,-24.24
1774514343941,2.0494366,0.8475474,8.37013,0.073303826,-0.21380283,-0.35918877,1.02,11.94,-24.24
1774514343962,0.8331822,0.4309563,8.762778,-0.38973203,0.22968534,-0.3555236,0.78,11.46,-24.3
1774514343982,-0.44532153,0.04309563,9.725247,-0.7415904,0.61086524,-0.3042109,0.29999998,10.679999,-24.3
1774514344003,-1.0726024,0.15801731,9.859323,-0.73914695,0.70249504,-0.2406809,-0.12,10.38,-24.24
1774514344024,-1.2210429,0.2777274,9.65821,-0.50579643,0.5045747,-0.21868975,-0.35999998,10.26,-23.58
1774514344044,-1.067814,0.48362875,9.155427,-0.23579398,0.18936823,-0.21380283,0.0,10.92,-23.22
1774514344065,-0.7565677,0.6655881,8.6574335,-0.073303826,-0.119729586,-0.21502456,0.9,11.759999,-23.699999
1774514344086,-0.37828386,0.8762778,8.42759,-0.012217305,-0.25289822,-0.19425514,1.14,12.059999,-23.939999
1774514344106,-0.06703765,0.866701,8.39886,-0.065973446,-0.19058995,-0.16493362,1.0799999,12.66,-24.42
1774514344126,0.22505496,0.7661445,8.6574335,-0.19792034,-0.06352998,-0.12095132,0.96,12.599999,-23.939999
1774514344147,0.40701428,0.7182605,9.088389,-0.26633725,0.012217305,-0.10751228,0.59999996,12.78,-23.4
1774514344168,0.37349546,0.5554548,9.270349,-0.29565877,0.06841691,-0.103847094,0.53999996,12.66,-22.8
1774514344190,0.21547815,0.36870706,9.533711,-0.3555236,0.057421334,-0.10995574,0.78,12.719999,-22.199999
1774514344210,-0.0047884034,0.2873042,10.084377,-0.38973203,0.036651913,-0.080634214,0.9,13.0199995,-22.199999
1774514344231,-0.033518825,0.50757074,10.500969,-0.34697145,0.042760566,-0.032986723,0.84,12.36,-21.84
1774514344253,-0.11971009,0.641646,10.7116585,-0.26511553,0.05375614,0.009773844,0.65999997,12.42,-21.42
1774514344274,-0.21547815,0.8283938,10.82658,-0.1600467,0.02565634,0.065973446,0.9,12.42,-21.119999
1774514344295,-0.15801731,0.93373865,10.936713,-0.06963864,-0.008552114,0.10262536,0.59999996,12.3,-21.119999
1774514344315,-0.22026655,0.9528923,10.998962,-0.0036651916,-0.017104227,0.11362094,0.84,12.84,-21.0
1774514344337,-0.1436521,0.9816227,10.984597,0.09162979,-0.007330383,0.12095132,1.56,13.38,-20.82
1774514344358,-0.29209262,0.30166942,10.927136,-0.04520403,0.10262536,0.14049901,1.38,13.5,-20.64
1774514344378,-0.5554548,-0.5363012,11.137826,-0.24312437,0.24312437,0.13194689,2.1,13.92,-20.34
1774514344399,-0.6607997,-2.006341,11.927913,-0.2602286,0.2687807,0.080634214,2.3999999,13.92,-20.279999
1774514344420,-0.6607997,-2.006341,11.927913,-0.18203785,0.27000242,0.09407325,2.34,13.74,-20.82
1774514344439,-0.6464345,-2.954445,11.425131,-0.015882496,0.15149458,0.1563815,2.9399998,13.98,-20.699999
1774514344461,-0.33997664,-3.0597897,10.505757,0.31887165,-0.004886922,0.21868975,2.9399998,13.98,-21.0
1774514344481,-0.35434186,-3.107674,9.255983,0.5290093,-0.10629055,0.27977628,2.82,13.62,-21.119999
1774514344502,-0.4165911,-2.8443117,8.561666,0.4813618,-0.15271631,0.32620203,3.0,13.44,-21.0
1774514344523,-0.5554548,-2.6719291,8.389283,0.3408628,-0.14172074,0.29810223,3.0,13.2,-20.939999
1774514344543,-0.9528923,-2.719813,8.695741,0.1282817,-0.07086037,0.23945917,3.54,12.9,-20.82
1774514344564,-1.2162545,-2.8921957,8.925584,0.034208454,-0.047647487,0.22968534,4.3199997,13.259999,-21.0
1774514344584,-1.163582,-2.8443117,9.021352,0.056199603,-0.10751228,0.2406809,4.62,13.679999,-21.6
1774514344605,-0.81881696,-2.456451,8.920795,0.1001819,-0.14294247,0.26145032,4.68,14.099999,-21.72
1774514344625,-0.33997664,-2.111686,8.566454,0.17592919,-0.21624629,0.25778514,4.62,14.04,-21.119999
1774514344645,0.17717093,-1.6424223,8.676587,0.11484267,-0.1966986,0.21135938,4.14,13.74,-21.0
1774514344666,0.08140286,-1.7525556,8.815451,0.02565634,-0.08552113,0.14294247,4.14,13.44,-20.039999
1774514344688,-0.12928689,-1.8195933,8.829816,-0.062308256,-0.02076942,0.16737708,3.8999999,12.96,-20.34
1774514344710,-0.01436521,-1.412579,9.050082,-0.1685988,-0.04886922,0.18570304,3.9599998,12.84,-20.76
1774514344731,-0.4261679,-1.5658079,9.32781,-0.35063666,0.19547687,0.13561209,4.5,13.259999,-20.34
1774514344751,-0.6368576,-1.5753847,9.500193,-0.32253686,0.26389378,0.13439035,4.56,12.96,-20.939999
1774514344771,-0.49320555,-1.5035586,9.217676,-0.20891592,0.17470746,0.118507855,4.7999997,12.84,-20.46
1774514344791,-0.5793968,-1.2497733,9.294291,-0.17837265,0.081855945,0.073303826,4.14,12.48,-20.699999
1774514344812,-0.40701428,-1.4987702,8.992621,-0.18325958,0.089186326,0.021991149,4.38,12.78,-21.9
1774514344838,-0.23942018,-1.4221559,9.040505,-0.35063666,0.11362094,-0.08307768,4.56,12.96,-22.02
1774514344858,-0.17717093,-1.5993267,9.572019,-0.29810223,0.14660765,-0.111177474,4.74,13.2,-21.779999
1774514344878,-0.45489833,-1.7669208,10.141838,-0.1563815,0.17837265,-0.11484267,5.22,13.98,-21.18
1774514344898,-0.45489833,-1.7669208,10.141838,0.009773844,0.13927728,-0.12095132,4.92,13.799999,-20.279999
1774514344918,-0.7086837,-1.5610195,9.940725,0.20525073,0.09896017,-0.12217305,5.1,14.16,-19.8
1774514344938,-0.81402856,-1.0869676,9.562442,0.32986724,0.09285152,-0.12461651,5.04,14.28,-20.16
1774514344957,-0.58418524,-0.7038953,8.925584,0.20280726,-0.02076942,-0.172264,5.7599998,14.639999,-20.34
1774514344978,-0.58897364,-1.3742718,9.782708,-0.037873644,-0.19792034,-0.2602286,5.46,14.4,-20.16
1774514344998,-0.25857377,-1.6424223,10.922348,-0.064751714,-0.2284636,-0.30176744,5.8199997,14.58,-20.82
1774514345018,-0.25857377,-1.6424223,10.922348,0.33108896,-0.16982053,-0.2846632,5.4,13.92,-20.34
1774514345039,0.46447513,-0.61770403,9.006987,0.6267477,-0.0720821,-0.24801129,4.44,13.08,-20.52
1774514345058,0.61770403,-0.14844051,7.9726915,0.49846604,-0.10140363,-0.23457226,4.7999997,13.32,-20.82
1774514345079,0.62728083,0.34476504,8.283937,0.081855945,-0.1563815,-0.2406809,4.44,13.559999,-20.76
1774514345099,0.090979666,0.22984336,9.375694,-0.3323107,-0.05009095,-0.2565634,4.14,13.2,-21.06
1774514345119,0.090979666,0.22984336,9.375694,-0.50701815,0.1160644,-0.19792034,3.9599998,12.9,-21.3
1774514345140,-1.1013328,-0.1388637,10.927136,-0.54733527,0.24923302,-0.11484267,3.6,12.96,-21.18
1774514345160,-1.3072342,-0.01436521,11.128249,-0.36774087,0.18936823,-0.04520403,2.8799999,11.639999,-20.699999
1774514345180,-1.3311762,0.07182605,10.778696,-0.09407325,0.08307768,-0.02443461,3.1799998,12.48,-20.58
1774514345201,-1.115698,0.18674773,9.888053,0.13439035,-0.021991149,-0.013439035,3.24,12.96,-20.279999
1774514345220,-0.6703765,0.30645782,9.275137,0.27000242,-0.13194689,0.0012217305,3.6599998,13.139999,-20.34
1774514345241,-0.320823,0.44532153,8.48984,0.3555236,-0.21502456,0.019547688,3.8999999,13.679999,-20.939999
1774514345261,0.08619126,0.47405192,8.063671,0.33353242,-0.23823744,0.042760566,4.08,13.74,-21.0
1774514345282,0.29688102,0.38307226,7.752425,0.21135938,-0.16982053,0.059864793,4.2599998,13.74,-20.939999
1774514345303,0.46447513,0.36391866,7.9487495,0.002443461,-0.09285152,0.065973446,4.38,13.799999,-20.82
1774514345324,0.7278373,0.4357447,8.494628,-0.16982053,-0.014660766,0.05375614,4.7999997,14.04,-20.34
1774514345344,0.8283938,0.45489833,9.208099,-0.29565877,0.07086037,0.009773844,5.1,14.16,-20.34
1774514345365,0.58418524,0.4165911,9.710882,-0.36041048,0.1160644,-0.03176499,4.62,13.679999,-20.64
1774514345385,0.2825158,0.45968673,10.295067,-0.35063666,0.08674286,-0.02687807,4.5,13.98,-20.52
1774514345406,0.04309563,0.521936,10.778696,-0.27122417,0.06352998,-0.013439035,4.56,14.16,-20.34
1774514345426,-0.33997664,0.5410896,11.018116,-0.15149458,0.04642576,-0.002443461,4.5,14.7,-20.16
1774514345446,-0.50278234,0.62728083,10.965444,0.004886922,0.017104227,0.039095376,4.98,15.179999,-19.56
1774514345468,-0.39264908,0.6368576,10.79785,0.08307768,-0.019547688,0.08674286,4.98,14.94,-19.5
1774514345489,-0.19153613,0.7469909,10.79785,0.105068825,-0.0842994,0.12950343,5.3399997,14.759999,-19.439999
1774514345510,-0.095768064,0.5267244,10.898406,0.111177474,-0.103847094,0.16371189,5.1,14.16,-19.38
1774514345531,-0.02873042,-0.11492168,10.82658,0.05375614,-0.07696902,0.172264,4.74,13.86,-19.8
1774514345551,0.023942016,-0.6895301,11.003751,-0.04520403,-0.10262536,0.1600467,4.68,13.98,-19.619999
1774514345571,0.05746084,-1.3072342,10.960655,-0.10629055,-0.08552113,0.14660765,4.2599998,14.16,-19.92
1774514345592,0.24899697,-2.0111294,10.635044,-0.23823744,0.081855945,0.12950343,4.74,14.639999,-19.92
1774514345613,-0.22505496,-2.954445,10.67814,-0.42760566,0.26389378,0.062308256,5.04,14.7,-19.68
1774514345634,-0.51235914,-3.3518825,10.58716,-0.41050145,0.25778514,0.081855945,5.3399997,14.82,-19.56
1774514345655,-0.81881696,-3.7349546,10.089166,0.043982297,0.032986723,0.21380283,5.64,14.94,-18.96
1774514345676,-0.9864111,-3.6727054,9.337387,0.16126843,-0.103847094,0.21380283,5.58,15.179999,-18.96
1774514345697,-1.163582,-3.6056678,8.820239,0.119729586,-0.095294975,0.18692477,5.7,15.179999,-19.199999
1774514345717,-1.4556746,-3.6343982,8.480263,-0.07086037,-0.015882496,0.18203785,6.0,15.42,-19.5
1774514345738,-1.6998832,-3.53863,8.508993,-0.1685988,-0.013439035,0.19181168,6.24,15.48,-19.98
1774514345759,-0.641646,-2.633622,9.174581,-0.09162979,-0.10995574,0.16982053,6.2999997,15.179999,-19.859999
1774514345779,-0.15801731,-2.408567,9.174581,0.047647487,-0.23579398,0.13316862,7.02,15.839999,-20.039999
1774514345799,0.17717093,-2.1978772,9.14585,0.096516706,-0.2968805,0.111177474,7.14,16.26,-20.22
1774514345820,0.46926352,-1.9249382,9.313444,0.07574729,-0.2687807,0.09896017,7.2,16.5,-20.34
1774514345840,0.16759412,-2.078167,9.495404,0.06841691,-0.103847094,0.095294975,6.7799997,15.96,-20.939999
1774514345861,-0.33039984,-1.9919758,9.241618,0.11728613,0.056199603,0.1441642,6.3599997,15.719999,-20.82
1774514345882,-0.8379706,-2.1499932,8.6574335,0.1881465,-0.008552114,0.15271631,6.12,15.12,-20.64
1774514345903,-1.0582372,-2.1643584,8.748413,0.17592919,-0.09040806,0.1563815,6.18,14.759999,-20.699999
1774514345934,-0.9959879,-2.0638018,7.9104424,-0.03176499,-0.035430185,0.12583824,7.5,16.44,-21.06
1774514345955,-0.7469909,-1.9871874,8.465898,-0.2003638,0.040317107,0.10873401,7.62,16.8,-21.48
1774514345976,-0.62249243,-1.9776106,8.700529,-0.23579398,0.007330383,0.10995574,7.2599998,16.56,-21.48
1774514345996,-0.21068975,-1.8531121,9.414001,-0.17470746,-0.018325957,0.08552113,7.3199997,16.08,-21.359999
1774514346016,0.0,-1.6328455,9.782708,-0.11484267,-0.07574729,0.043982297,6.96,15.12,-21.18
1774514346036,0.033518825,-1.364695,9.753978,-0.10262536,-0.12095132,-0.0036651916,6.8999996,15.24,-20.58
1774514346056,0.07182605,-1.2545617,9.959879,-0.119729586,-0.02565634,-0.061086524,6.6,14.94,-20.46
1774514346077,-0.01436521,-1.2210429,10.371682,-0.06841691,0.07696902,-0.105068825,6.6,15.0,-20.279999
1774514346096,-0.033518825,-1.1827357,10.702082,0.065973446,0.07574729,-0.14294247,6.48,15.36,-19.859999
1774514346117,-0.20590134,-1.1444284,10.85531,0.29077184,0.02443461,-0.1600467,7.02,15.54,-19.92
1774514346136,-0.12928689,-0.90021986,10.6877165,0.54000485,-0.06963864,-0.23579398,7.3799996,16.14,-20.16
1774514346156,0.019153614,-0.93373865,10.184934,0.5766568,-0.095294975,-0.3200934,7.3199997,16.32,-20.4
1774514346177,0.019153614,-1.4269443,9.844957,0.5571091,-0.07086037,-0.37384954,7.2,16.14,-20.58
1774514346197,0.7038953,-1.436521,8.858546,0.59742624,-0.029321533,-0.3921755,6.8999996,15.719999,-21.24
1774514346218,0.7038953,-1.436521,8.858546,0.6988298,-0.09040806,-0.3933972,7.08,15.54,-21.539999
1774514346239,1.1923125,-0.49799395,7.062895,0.5876524,-0.23945917,-0.39828414,6.7799997,15.42,-21.96
1774514346259,1.3694834,-0.21547815,7.038953,0.23090707,-0.35796702,-0.40561453,7.14,15.78,-23.1
1774514346278,1.3263878,-0.019153614,7.7907324,-0.34330627,-0.23579398,-0.37384954,6.8999996,15.48,-23.22
1774514346299,0.62249243,-0.2633622,9.308656,-0.83199847,0.012217305,-0.3640757,5.7599998,14.7,-23.519999
1774514346320,-0.4213795,-0.62728083,10.817003,-1.1032226,0.28099802,-0.33964106,5.22,14.099999,-23.34
1774514346340,-1.1971009,-0.6895301,11.798626,-1.0396926,0.45814893,-0.29443705,4.68,13.679999,-23.039999
1774514346360,-1.3599066,-0.5746084,11.540052,-0.54367006,0.41905355,-0.23701571,4.38,13.86,-22.68
1774514346380,-1.067814,-0.320823,10.31901,-0.04520403,0.16493362,-0.19425514,5.4,14.759999,-22.199999
1774514346401,-0.48362875,0.16759412,9.184157,0.25900686,-0.15271631,-0.1685988,5.8199997,15.36,-21.84
1774514346422,-0.16280572,0.25378537,8.51857,0.34330627,-0.28221974,-0.1563815,5.46,15.599999,-21.42
1774514346442,0.15801731,0.29688102,8.173804,0.30665436,-0.23945917,-0.10629055,5.58,15.66,-21.779999
1774514346463,0.35913026,0.2873042,7.8625584,0.21868975,-0.14294247,-0.057421334,5.46,15.9,-21.84
1774514346484,0.61291564,0.32561144,7.97748,0.04886922,-0.09773844,-0.02687807,5.1,15.839999,-22.5
1774514346504,0.79008657,0.2681506,8.676587,-0.13072516,-0.06841691,-0.029321533,5.1,16.02,-22.38
1774514346524,0.90021986,0.20111294,9.255983,-0.21746802,0.0036651916,-0.039095376,4.68,15.719999,-22.38
1774514346545,0.89543146,0.12449849,9.639056,-0.26389378,0.06841691,-0.06719518,4.3199997,15.36,-22.08
1774514346565,0.5650316,-0.038307227,9.964667,-0.30176744,0.0720821,-0.0842994,5.16,15.839999,-22.08
1774514346587,0.076614454,-0.110133275,10.539276,-0.29932398,0.03176499,-0.034208454,4.62,15.96,-22.199999
1774514346608,-0.22026655,-0.05746084,11.123461,-0.22602014,-0.009773844,0.06719518,5.04,16.26,-22.14
1774514346631,-0.22984336,0.20111294,11.15698,-0.07819075,0.002443461,0.15760323,5.2799997,16.92,-21.66
1774514346652,-0.23463176,0.45968673,10.682928,0.08552113,-0.004886922,0.19914207,5.22,16.92,-21.24
1774514346674,-0.11971009,0.5267244,10.376471,0.13805555,-0.057421334,0.21868975,5.8799996,17.4,-20.82
1774514346694,0.090979666,0.08619126,10.462662,0.02687807,-0.05131268,0.19425514,5.7,17.52,-20.699999
1774514346715,0.45489833,-0.45010993,10.951078,-0.1600467,-0.0036651916,0.18081611,5.8799996,17.52,-21.24
1774514346736,0.48362875,-1.0630256,11.473015,-0.25045475,0.059864793,0.17959438,5.52,17.1,-21.72
1774514346757,0.3878607,-2.2266076,11.664551,-0.37384954,0.1160644,0.17348573,5.4,16.74,-21.84
1774514346778,0.31603462,-3.3087866,12.138602,-0.39584067,0.111177474,0.111177474,5.64,17.039999,-22.26
1774514346799,0.1436521,-3.8163576,12.5504055,-0.019547688,0.059864793,0.14905111,6.66,18.0,-22.02
1774514346819,-0.22026655,-3.8355112,10.199299,0.46181414,0.02443461,0.13561209,6.8399997,18.48,-21.779999
1774514346839,-0.33997664,-3.3854012,8.394072,0.71593404,-0.014660766,0.19181168,7.14,18.84,-21.779999
1774514346861,-0.6368576,-3.1890767,7.1586633,0.63041294,-0.034208454,0.16615535,7.3799996,18.96,-21.6
1774514346882,-0.8283938,-3.1651347,7.0485296,0.26389378,-0.059864793,0.11484267,7.08,17.699999,-22.14
1774514346902,-0.8762778,-3.0358477,7.943961,-0.10140363,-0.057421334,0.07574729,7.2,17.22,-22.68
1774514346963,0.047884032,-2.5378537,9.184157,0.04642576,-0.11362094,0.02443461,6.54,17.52,-22.439999
1774514346983,0.1436521,-2.4612393,8.954314,0.13194689,-0.19181168,0.05497787,6.24,17.699999,-22.02
1774514347003,0.17238252,-2.2649148,9.011775,0.119729586,-0.18936823,0.07086037,6.8399997,17.76,-22.14
1774514347024,-0.10534488,-2.2170308,8.882488,0.12705997,-0.12950343,0.080634214,6.8399997,17.76,-22.14
1774514347044,-0.46926352,-2.1499932,8.743625,0.13683382,-0.07819075,0.12339478,7.3199997,17.46,-23.039999
1774514347064,-0.6943185,-2.15957,7.867347,0.1160644,-0.065973446,0.14905111,7.74,17.34,-23.46
1774514347084,-0.46926352,-1.9393034,8.197746,0.056199603,-0.13805555,0.12461651,8.099999,17.52,-23.699999
1774514347106,-0.62249243,-2.1499932,7.867347,-0.059864793,-0.032986723,0.08307768,7.8599997,16.8,-23.939999
1774514347127,-0.45010993,-2.1547816,7.776367,-0.16615535,-0.057421334,0.08552113,7.3199997,15.96,-24.24
1774514347147,-0.12449849,-2.1787236,8.154651,-0.3213151,-0.08674286,0.073303826,7.2599998,15.9,-24.24
1774514347167,0.20590134,-2.1021092,8.748413,-0.47036624,-0.11362094,0.04642576,6.66,15.78,-24.6
1774514347195,0.31124622,-2.1691468,9.404425,-0.816116,0.02687807,-0.042760566,6.6,16.68,-24.359999
1774514347215,0.33518824,-2.327164,10.400413,-0.86376345,0.19303341,-0.058643065,7.08,17.82,-24.119999
1774514347235,0.31603462,-2.336741,11.48738,-0.66339964,0.27366763,-0.06719518,6.6,17.94,-23.519999
1774514347255,0.23942018,-2.006341,12.248735,-0.15149458,0.2724459,-0.09285152,7.14,18.72,-23.1
1774514347275,0.033518825,-1.6328455,12.229582,0.4007276,0.204029,-0.103847094,6.8399997,18.48,-22.56
1774514347294,0.14844051,-0.9720459,11.070788,0.79168135,-0.012217305,-0.18692477,6.8399997,18.96,-22.26
1774514347315,0.58418524,-0.93852705,9.433155,0.8576548,-0.33108896,-0.3555236,6.96,19.26,-22.98
1774514347336,0.90021986,-1.1683705,8.537724,0.8588765,-0.59864795,-0.43127087,6.8999996,19.14,-22.74
1774514347356,1.1252748,-1.4221559,8.451532,0.81245077,-0.61086524,-0.42271876,7.2,19.32,-23.4
1774514347376,1.934515,-1.3072342,8.12592,0.49357912,-0.5045747,-0.38240165,6.54,18.359999,-24.18
1774514347397,1.7908629,-1.4700398,9.011775,-0.14660765,-0.1563815,-0.3481932,6.42,18.359999,-24.539999
1774514347417,1.7908629,-1.4700398,9.011775,-0.893085,0.47891834,-0.3408628,5.8199997,18.18,-25.32
1774514347436,-0.30166942,-1.5275006,11.597513,-1.0458013,1.0213667,-0.30665436,5.52,18.119999,-25.439999
1774514347456,-0.8475474,-1.292869,11.329363,-0.6939429,1.0458013,-0.25778514,5.7,18.539999,-24.9
1774514347477,-0.90979666,-0.81402856,10.204087,-0.058643065,0.60231316,-0.17348573,6.06,18.84,-24.3
1774514347498,-0.51235914,-0.08140286,8.901642,0.32375857,0.04153884,-0.15515977,6.12,19.14,-23.76
1774514347518,0.02873042,0.22984336,8.293514,0.4251622,-0.3848451,-0.19914207,5.8799996,18.96,-23.46
1774514347538,0.5315128,0.23942018,8.336611,0.39095375,-0.50335294,-0.21868975,6.06,18.9,-23.58
1774514347559,1.067814,0.11971009,8.255207,0.3359759,-0.37995818,-0.20525073,5.46,18.42,-23.58
1774514347580,1.3024458,0.062249243,8.274361,0.22235495,-0.24190263,-0.23579398,5.2799997,18.18,-24.0
1774514347600,1.1109096,-0.32561144,8.528147,0.09773844,-0.13927728,-0.3005457,5.7,18.72,-24.119999
1774514347620,0.8762778,-0.7517793,8.7292595,-0.06352998,0.002443461,-0.31520647,5.46,18.72,-24.24
1774514347641,0.45489833,-0.91937345,9.083601,-0.17104226,0.10751228,-0.2773328,5.8799996,19.199999,-24.48
1774514347661,-0.0047884034,-0.8762778,9.203311,-0.19303341,0.18081611,-0.19181168,5.8799996,19.199999,-24.24
1774514347681,-0.272939,-0.59855044,9.32781,-0.22479841,0.19303341,-0.0842994,4.74,18.6,-24.18
1774514347702,-0.31603462,-0.10534488,9.883265,-0.2846632,0.16126843,0.013439035,3.9599998,19.08,-24.539999
1774514347722,-0.22505496,0.25378537,10.31901,-0.25534168,0.17959438,0.0842994,3.9599998,19.08,-24.539999
1774514347744,-0.12928689,0.4213795,10.548853,-0.17959438,0.1685988,0.12461651,4.98,20.4,-24.24
1774514347764,-0.24899697,0.5410896,10.486604,-0.02321288,0.10262536,0.1441642,4.7999997,20.16,-24.18
1774514347785,-0.46447513,0.39264908,10.180145,0.1160644,0.043982297,0.19547687,4.62,19.32,-23.82
1774514347805,-0.33039984,0.31603462,9.9790325,0.17715092,-0.035430185,0.26389378,4.98,19.14,-24.0
1774514347826,-0.019153614,0.19153613,10.261548,0.17592919,-0.12461651,0.2919936,4.7999997,18.72,-24.24
1774514347847,0.20590134,0.01436521,10.314221,0.18692477,-0.16615535,0.31887165,5.4,19.08,-24.42
1774514347868,-0.18674773,-1.1444284,10.869676,0.095294975,-0.17104226,0.33353242,5.8799996,19.68,-24.3
1774514347888,1.0486604,-1.0869676,10.927136,-0.112399206,-0.18448131,0.41905355,5.7,19.38,-24.24
1774514347909,1.2497733,-1.2066777,12.392388,-0.34574974,-0.08552113,0.28099802,5.7599998,19.199999,-24.48
1774514347931,0.842759,-1.6567876,12.751518,-0.29565877,0.019547688,0.15149458,5.94,19.32,-24.6
1774514347952,0.92895025,-3.0262709,12.708423,-0.17837265,0.059864793,0.073303826,5.8799996,19.26,-24.6
1774514347973,0.48362875,-3.3518825,12.555194,-0.039095376,0.034208454,0.008552114,6.24,19.56,-24.84
1774514347993,0.25378537,-3.145981,12.023681,0.86254174,-0.015882496,0.16493362,6.24,19.56,-24.9
1774514348014,0.0047884034,-3.1028855,10.170568,1.0323622,-0.05375614,0.19792034,6.24,19.56,-24.359999
1774514348035,-0.22026655,-2.9113493,8.561666,0.91996306,-0.096516706,0.16982053,6.12,18.84,-24.48
1774514348056,-0.5363012,-2.9879637,7.541735,0.6291912,-0.15515977,0.14782938,5.8199997,18.24,-24.779999
1774514348076,-0.78050977,-3.3135753,7.2113357,0.2773328,-0.18936823,0.13561209,6.42,18.539999,-24.539999
1774514348096,-0.7565677,-3.514688,7.690176,0.047647487,-0.18692477,0.12583824,6.7799997,18.42,-25.98
1774514348116,-0.36870706,-3.265691,8.872911,0.047647487,-0.16371189,0.14538592,7.56,18.42,-26.4
1774514348135,-0.36870706,-3.265691,8.872911,0.13439035,-0.1685988,0.16493362,7.74,18.42,-26.88
1774514348156,0.05746084,-2.791639,8.762778,0.16615535,-0.22479841,0.16126843,7.8599997,18.06,-27.599998
1774514348177,0.4405331,-2.3798366,8.394072,0.103847094,-0.25167647,0.15027285,7.9199996,17.699999,-27.18
1774514348196,0.7374141,-1.5562311,8.566454,0.002443461,-0.21135938,0.13072516,7.68,17.94,-27.539999
1774514348217,0.51235914,-1.4221559,8.868123,-0.103847094,-0.13316862,0.118507855,7.44,17.1,-27.779999
1774514348238,0.34476504,-1.2785037,9.375694,-0.15027285,-0.1001819,0.10995574,7.14,16.619999,-27.599998
1774514348258,0.095768064,-1.2258313,9.730036,-0.105068825,-0.02565634,0.058643065,6.6,16.199999,-27.96
1774514348278,-0.23463176,-1.4221559,9.615114,0.0,0.059864793,0.034208454,6.18,15.719999,-27.48
1774514348297,-0.38307226,-1.532289,9.351752,0.06352998,0.017104227,0.04886922,6.24,16.02,-27.119999
1774514348321,0.038307227,-1.3982137,9.241618,0.07941248,-0.15393804,0.04642576,5.46,16.14,-28.32
1774514348340,0.48362875,-1.4700398,9.528923,0.008552114,-0.118507855,-0.0061086523,4.7999997,16.619999,-29.46
1774514348361,0.58897364,-1.5610195,9.639056,-0.02443461,-0.05375614,-0.034208454,5.22,16.859999,-30.06
1774514348382,0.7230489,-1.5897499,9.65821,-0.0036651916,-0.008552114,-0.03176499,5.8799996,17.039999,-29.039999
1774514348401,0.78529817,-1.6472107,9.471462,0.04153884,0.012217305,-0.034208454,6.8399997,17.82,-28.8
1774514348421,0.79966336,-1.5227122,9.44752,0.02076942,-0.019547688,-0.05131268,7.68,17.94,-28.14
1774514348442,0.8331822,-1.2306197,9.524135,0.0,-0.039095376,-0.089186326,7.5,17.76,-28.14
1774514348462,0.6895301,-1.091756,9.44752,-0.012217305,-0.007330383,-0.16249016,7.9199996,18.24,-28.8
1774514348482,0.46926352,-0.89543146,9.56723,-0.030543262,0.10140363,-0.22235495,7.3799996,17.94,-29.099998
1774514348503,0.2777274,-0.6607997,9.270349,0.008552114,0.17959438,-0.25900686,6.8999996,17.82,-28.8
1774514348523,0.16759412,-0.90979666,8.949526,-0.04886922,0.15271631,-0.28710666,7.08,17.88,-28.619999
1774514348543,0.12928689,-1.4030021,9.763555,-0.267559,0.1001819,-0.30665436,6.66,17.34,-27.96
1774514348563,0.1436521,-1.9776106,10.7356,-0.32375857,0.19058995,-0.28588495,6.72,16.98,-27.72
1774514348583,0.047884032,-1.9009962,10.79785,-0.12217305,0.29077184,-0.23457226,6.7799997,17.16,-28.14
1774514348603,0.17238252,-1.3551182,9.595961,0.3115413,0.17470746,-0.18570304,6.6,17.52,-28.08
1774514348622,0.81881696,-0.6991069,8.0924015,0.5510005,-0.13439035,-0.18570304,6.42,17.4,-28.38
1774514348643,1.4508862,-0.20590134,7.52737,0.5546656,-0.43249258,-0.21135938,6.48,17.52,-28.859999
1774514348663,2.087744,0.20111294,7.5704656,0.38606682,-0.59742624,-0.22357668,6.24,16.68,-28.92
1774514348682,2.5091233,0.45489833,7.9487495,-0.007330383,-0.49968776,-0.21991149,5.8799996,16.26,-29.22
1774514348703,2.303222,0.35913026,8.858546,-0.5363397,-0.21380283,-0.23945917,5.8199997,15.78,-28.859999
1774514348723,1.3263878,-0.19153613,10.520123,-0.9969321,0.17348573,-0.27488935,5.4,15.78,-29.279999
1774514348743,0.36870706,-0.39743748,11.856087,-1.1239921,0.5534439,-0.28099802,4.7999997,16.02,-29.279999
1774514348763,-0.2825158,-0.46926352,12.014104,-0.6951646,0.6560693,-0.25534168,4.74,16.26,-28.68
1774514348784,-0.59855044,-0.37828386,10.692505,-0.08307768,0.43982297,-0.18692477,4.62,17.279999,-28.68
1774514348805,-0.50757074,0.033518825,9.212888,0.2919936,0.095294975,-0.11484267,3.78,17.039999,-27.96
1774514348826,-0.21547815,0.4357447,8.350976,0.40194935,-0.14538592,-0.052534413,4.2599998,17.94,-27.599998
1774514348847,0.0047884034,0.5363012,7.9391727,0.37384954,-0.15760323,0.004886922,4.38,18.3,-27.72
1774514348868,0.29688102,0.5267244,7.747637,0.25045475,-0.04886922,0.05009095,4.2599998,17.88,-28.019999
1774514348887,0.7517793,0.50278234,7.920019,0.059864793,0.056199603,0.06963864,5.16,18.24,-27.779999
1774514348908,0.92895025,0.39743748,8.504205,-0.18692477,0.13439035,0.05131268,5.64,18.119999,-27.9
1774514348930,0.8858546,0.17238252,9.227253,-0.35796702,0.13561209,0.040317107,5.4,17.82,-28.26
1774514348951,1.0630256,0.06703765,10.323798,-0.5216789,0.10751228,0.05375614,5.7,17.94,-27.84
1774514348974,1.0342951,0.047884032,11.722012,-0.5815437,0.1282817,0.062308256,6.0,18.18,-27.779999
1774514348995,0.7517793,0.21068975,12.583924,-0.10140363,0.34697145,0.13439035,5.46,17.88,-27.3
1774514349015,0.46926352,0.46926352,12.516887,0.21380283,0.35185838,0.16249016,5.8799996,18.42,-27.18
1774514349036,-0.1340753,0.7517793,10.524911,0.38240165,0.23457226,0.19425514,5.8199997,18.48,-26.82
1774514349058,-0.15801731,0.79008657,10.151415,0.43860126,0.02076942,0.2284636,5.8199997,18.66,-26.82
1774514349078,0.038307227,0.7086837,10.132261,0.48991394,-0.11728613,0.2724459,6.3599997,18.6,-27.06
1774514349100,0.320823,0.6943185,9.888053,0.5314528,-0.14538592,0.29810223,6.54,18.119999,-26.64
1774514349121,0.4213795,-0.07182605,9.878476,0.39828414,-0.04520403,0.27855456,6.54,17.94,-27.18
1774514349140,0.1340753,-0.5602432,10.213664,0.16982053,0.1441642,0.2932153,6.66,17.4,-27.359999
1774514349161,-0.047884032,-0.9816227,10.572795,0.056199603,0.27122417,0.30543262,6.0,16.44,-28.5
1774514349182,-0.2633622,-2.2505496,10.582372,0.02565634,0.31520647,0.2919936,6.8999996,16.8,-28.38
1774514349204,-0.29209262,-3.217807,10.697293,-0.10629055,0.18692477,0.30298916,7.56,16.5,-28.199999
1774514349224,0.0,-3.4811692,11.243171,-0.10995574,-0.11362094,0.31887165,8.04,16.8,-28.019999
1774514349246,0.24420857,-3.3854012,11.334151,0.1881465,-0.36163223,0.31398472,9.42,17.699999,-27.24
1774514349266,0.4213795,-3.1028855,10.189722,0.59131753,-0.42760566,0.30787608,8.94,16.98,-27.18
1774514349288,0.5650316,-2.777274,9.059659,0.64873886,-0.43371433,0.27855456,9.059999,16.92,-27.599998
1774514349310,0.45010993,-2.4660277,8.700529,0.5131268,-0.41783184,0.22357668,8.7,16.32,-27.9
1774514349331,0.17717093,-2.1930888,8.690952,0.37018433,-0.35185838,0.1563815,8.7,15.78,-28.56
1774514349352,-0.076614454,-1.9871874,8.619126,0.32375857,-0.2406809,0.103847094,9.24,15.9,-29.039999
1774514349373,-0.272939,-1.7764976,8.135497,0.30665436,-0.14172074,0.057421334,9.0,15.54,-29.519999
1774514349395,-0.1436521,-1.5179238,7.8050976,0.13316862,-0.12339478,-0.002443461,9.059999,15.24,-29.699999
1774514349415,0.17717093,-1.3072342,7.800309,-0.042760566,-0.08307768,-0.06719518,9.059999,14.88,-29.58
1774514349435,0.19632454,-1.2258313,8.288726,-0.16371189,-0.018325957,-0.095294975,8.639999,14.219999,-29.88
1774514349455,0.19153613,-1.4748282,9.217676,-0.25534168,0.02565634,-0.080634214,8.76,14.34,-30.06
1774514349475,0.19632454,-1.5610195,9.653421,-0.31520647,0.09896017,-0.059864793,8.82,14.28,-30.179998
1774514349496,0.095768064,-1.6376339,9.959879,-0.27366763,0.11728613,-0.032986723,9.0,15.0,-30.06
1774514349517,0.01436521,-1.4891934,10.13705,-0.1966986,0.15515977,-0.0012217305,9.36,15.78,-30.179998
1774514349537,-0.1436521,-1.316811,9.883265,-0.08307768,0.16982053,0.008552114,9.48,16.08,-30.179998
1774514349558,-0.19153613,-1.3359646,9.083601,0.019547688,0.018325957,0.02076942,9.78,16.26,-29.82
1774514349586,0.5506664,-0.7517793,9.107543,-0.047647487,-0.21746802,0.012217305,9.719999,16.26,-29.279999
1774514349607,0.37828386,-0.89543146,9.3182335,-0.32742378,0.09162979,-0.09896017,9.3,15.599999,-29.039999
1774514349628,0.37349546,-1.0247183,9.744401,-0.376293,0.23335053,-0.0842994,8.88,15.66,-29.88
1774514349647,0.62249243,-0.8475474,9.811439,-0.29932398,0.28955013,-0.07696902,8.46,15.36,-30.24
1774514349668,0.61291564,-0.8714894,9.691729,-0.20647246,0.26633725,-0.12950343,8.28,15.42,-30.359999
1774514349688,0.25857377,-0.93373865,9.375694,-0.16737708,0.23823744,-0.1966986,8.7,15.96,-30.42
1774514349707,0.0047884034,-0.89064306,9.629479,-0.18325958,0.23701571,-0.25045475,9.059999,16.5,-29.699999
1774514349728,-0.12449849,-0.6943185,9.739613,-0.17104226,0.31764993,-0.27000242,9.24,16.619999,-29.22
1774514349749,-0.2777274,-0.91937345,9.763555,-0.15271631,0.33353242,-0.267559,9.48,16.74,-28.68
1774514349768,-0.2873042,-1.2210429,10.342952,-0.27366763,0.37507126,-0.24190263,9.48,17.039999,-28.56
1774514349789,-0.34476504,-1.4748282,11.104307,-0.32986724,0.43249258,-0.23090707,9.9,17.34,-28.32
1774514349809,-0.12449849,-1.1492168,11.013328,-0.04886922,0.38240165,-0.21991149,10.08,17.76,-28.08
1774514349829,0.44532153,-0.46447513,9.380483,0.60231316,0.028099801,-0.25778514,9.84,17.699999,-28.38
1774514349849,1.0534488,-0.0047884034,7.819463,0.87109387,-0.38606682,-0.3200934,9.599999,17.52,-28.14
1774514349869,1.5610195,0.21068975,7.445967,0.67073005,-0.65118235,-0.35185838,9.12,16.74,-28.92
1774514349888,1.7908629,0.36870706,8.09719,0.07819075,-0.51923543,-0.31764993,8.82,16.26,-29.4
1774514349908,1.2210429,-0.076614454,9.437943,-0.4728097,-0.040317107,-0.27977628,8.88,16.14,-29.699999
1774514349929,0.19153613,-0.51235914,10.6398325,-0.79045963,0.5143485,-0.23090707,9.0,16.5,-30.0
1774514349949,-0.6607997,-0.7038953,10.998962,-0.7684685,0.84665924,-0.18570304,9.3,17.34,-29.64
1774514349970,-1.2545617,-0.7757214,10.390836,-0.38606682,0.72204274,-0.14660765,9.54,17.76,-29.519999
1774514349990,-1.4700398,-0.6799533,9.126697,0.19547687,-0.1600467,-0.05009095,10.08,18.3,-29.22
1774514350009,-1.0821792,-0.29209262,8.082825,0.09773844,-0.45448375,-0.039095376,10.26,18.24,-28.56
1774514350029,-0.4261679,0.0047884034,7.881712,-0.034208454,-0.5021312,-0.04153884,10.2,17.76,-27.84
1774514350050,0.24420857,0.2681506,8.346188,-0.034208454,-0.5021312,-0.04153884,10.0199995,17.4,-27.24
1774514350070,0.770933,0.4405331,8.863335,-0.13316862,-0.21868975,-0.036651913,9.36,16.98,-26.46
1774514350090,0.81881696,0.46926352,8.99741,-0.20158553,-0.0842994,0.0012217305,9.42,17.34,-26.64
1774514350110,0.7613561,0.4165911,9.030929,-0.33108896,0.0,0.012217305,8.34,16.859999,-26.699999
1774514350131,0.6607997,0.40222588,9.437943,-0.37751472,0.05009095,0.015882496,7.68,17.16,-27.24
1774514350151,0.45010993,0.31124622,10.247183,-0.2724459,0.064751714,0.042760566,7.3799996,17.1,-27.599998
1774514350171,0.1436521,0.2633622,10.730812,-0.12583824,0.04153884,0.09896017,7.08,17.16,-27.9
1774514350191,-0.05746084,0.33039984,10.912771,0.015882496,0.02687807,0.15027285,7.62,17.88,-27.96
1774514350212,-0.22984336,0.36870706,10.874464,0.12950343,0.015882496,0.1966986,8.22,18.42,-27.119999
1774514350232,-0.37828386,0.4261679,10.539276,0.172264,-0.040317107,0.26389378,8.22,18.48,-27.18
1774514350252,-0.23463176,0.4213795,10.266336,0.13805555,-0.10995574,0.29932398,7.68,17.76,-26.699999
1774514350272,0.038307227,0.5267244,10.419566,0.06963864,-0.15027285,0.32375857,7.56,17.279999,-26.279999
1774514350293,0.521936,0.37828386,10.7356,-0.09896017,-0.073303826,0.28221974,7.74,16.74,-25.98
1774514350314,0.5506664,-0.6655881,12.344504,-0.27122417,0.032986723,0.20525073,8.639999,17.16,-25.619999
1774514350333,0.30166942,-1.163582,13.13459,-0.20891592,0.06841691,0.13072516,8.4,17.279999,-25.68
1774514350354,0.30166942,-1.163582,13.13459,0.07086037,0.004886922,0.089186326,8.94,17.88,-25.68
1774514350373,0.12928689,-2.1739352,12.871228,0.2724459,-0.06841691,0.09773844,8.099999,17.76,-26.46
1774514350393,0.23942018,-2.4851813,11.439496,0.52778757,-0.12339478,0.16371189,6.72,16.859999,-27.18
1774514350413,0.2633622,-2.4133554,9.940725,0.8491027,-0.14905111,0.18570304,8.16,17.52,-27.42
1774514350433,0.12928689,-2.3654714,8.508993,0.95417154,-0.18570304,0.16982053,8.099999,16.98,-28.019999
1774514350454,0.12928689,-2.3654714,8.508993,0.8552113,-0.26511553,0.105068825,9.36,17.34,-28.32
1774514350474,-0.48841715,-2.6192567,7.642292,0.6133087,-0.30909783,0.037873644,9.66,17.1,-28.68
1774514350494,-0.6943185,-2.906561,8.1881695,0.32498032,-0.29810223,0.028099801,9.48,16.14,-28.859999
1774514350514,-0.6943185,-2.906561,8.1881695,0.15271631,-0.23457226,0.06352998,9.9,15.9,-29.039999
1774514350534,-0.7134721,-3.0358477,8.719683,0.14660765,-0.17470746,0.118507855,10.139999,15.48,-29.279999
1774514350554,-0.5746084,-2.9113493,9.059659,0.21624629,-0.12461651,0.1685988,11.16,15.36,-28.8
1774514350574,-0.33039984,-2.2266076,8.39886,0.26267207,-0.13927728,0.22602014,11.28,15.12,-29.34
1774514350595,-0.07182605,-1.9057846,8.303091,0.16982053,-0.15271631,0.25411993,11.4,15.24,-29.4
1774514350616,0.17238252,-1.6376339,8.470686,0.028099801,-0.13194689,0.2773328,10.559999,14.219999,-29.22
1774514350635,0.20111294,-1.4987702,8.748413,-0.12217305,-0.096516706,0.28344148,10.62,14.28,-29.64
1774514350656,0.22026655,-1.3311762,9.203311,-0.23823744,-0.034208454,0.30176744,10.38,13.799999,-28.859999
1774514350678,0.17717093,-1.1779473,9.892841,-0.25045475,0.052534413,0.30543262,10.44,13.139999,-29.16
1774514350698,0.090979666,-1.0247183,9.801862,-0.13194689,0.09040806,0.3005457,11.16,13.92,-29.64
1774514350719,0.22505496,-0.8571242,9.830592,0.042760566,-0.02076942,0.30176744,11.28,13.98,-29.519999
1774514350741,0.34476504,-0.7326257,9.356541,0.112399206,-0.065973446,0.2773328,11.46,14.7,-29.82
1774514350762,0.91458505,-0.5602432,8.925584,0.08674286,-0.11362094,0.2284636,11.5199995,14.46,-29.58
1774514350782,1.0342951,-0.58897364,9.787497,-0.04520403,0.013439035,0.12339478,11.16,13.86,-29.46
1774514350802,0.6751649,-0.82360536,9.935937,-0.1563815,0.2003638,0.05375614,11.04,13.259999,-29.039999
1774514350823,0.7469909,-0.7661445,10.25676,-0.1001819,0.18325958,0.032986723,11.28,13.08,-29.279999
1774514350843,0.78050977,-0.6512229,10.290278,0.007330383,0.13683382,-0.0012217305,10.98,12.599999,-29.039999
1774514350877,0.4261679,-0.4357447,9.969456,0.17348573,0.0842994,-0.0720821,11.28,12.96,-29.58
1774514350899,0.24420857,-0.19153613,9.758766,0.1563815,0.2321288,-0.112399206,11.34,13.32,-29.88
1774514350919,0.10055647,-0.009576807,9.346964,0.09896017,0.37018433,-0.15515977,11.34,13.32,-29.88
1774514350939,-0.062249243,-0.22026655,9.466674,-0.007330383,0.3652974,-0.20280726,12.48,14.04,-29.64
1774514350958,0.11971009,-0.5746084,10.127473,-0.061086524,0.30665436,-0.204029,12.48,14.04,-29.64
1774514350979,0.49799395,-0.5315128,10.28549,0.09162979,0.23457226,-0.19792034,12.84,14.04,-29.76
1774514351000,0.80924016,-0.22505496,9.457097,0.48502702,0.096516706,-0.19547687,12.66,13.62,-29.519999
1774514351020,1.1731589,0.29688102,7.867347,0.7867944,-0.095294975,-0.17592919,12.66,13.2,-29.88
1774514351040,1.2545617,0.45010993,6.83784,0.74281216,-0.2687807,-0.18936823,12.48,12.599999,-30.06
1774514351061,1.2258313,0.50757074,6.789956,0.25900686,-0.32742378,-0.20647246,12.42,12.24,-30.42
1774514351081,0.93852705,0.41180268,7.6710224,-0.36285394,-0.14538592,-0.2724459,12.66,11.94,-30.72
1774514351100,0.23463176,-0.05746084,9.083601,-0.9419542,0.14660765,-0.33108896,12.54,11.82,-30.66
1774514351121,-0.47405192,-0.45010993,10.788273,-1.2156218,0.43860126,-0.3115413,12.48,12.0,-30.3
1774514351141,-1.0486604,-0.5410896,11.45865,-1.1044444,0.5839872,-0.2443461,12.54,12.599999,-29.939999
1774514351161,-1.1540052,-0.47884035,11.420342,-0.6805039,0.41050145,-0.1685988,12.66,13.62,-29.279999
1774514351181,-0.6847417,0.12928689,10.295067,-0.24190263,0.17104226,-0.1001819,12.24,13.799999,-28.68
1774514351201,-0.1388637,0.58897364,9.255983,0.05131268,-0.16249016,-0.10629055,12.179999,14.099999,-28.56
1774514351221,0.37349546,0.9576807,8.6813755,0.095294975,-0.2919936,-0.12217305,12.24,14.28,-27.96
1774514351241,0.7038953,1.1540052,8.537724,0.095294975,-0.30543262,-0.14172074,11.88,13.86,-28.08
1774514351262,0.89543146,1.13964,8.504205,0.06719518,-0.17959438,-0.13927728,12.3,14.46,-28.68
1774514351282,0.6847417,0.9768343,8.461109,-0.065973446,-0.02565634,-0.12461651,11.7,14.5199995,-28.98
1774514351302,0.5554548,0.78050977,8.90643,-0.23457226,0.061086524,-0.103847094,11.16,14.04,-29.46
1774514351323,0.44532153,0.4357447,9.509769,-0.30909783,0.13927728,-0.09773844,10.86,14.34,-29.4
1774514351344,0.320823,0.19632454,9.801862,-0.29932398,0.16737708,-0.087964594,10.74,14.639999,-29.039999
1774514351365,0.18195933,0.10534488,10.170568,-0.30298916,0.12583824,-0.0720821,11.46,14.88,-28.32
1774514351386,0.05746084,0.1436521,10.682928,-0.28955013,0.065973446,-0.057421334,12.12,15.839999,-27.84
1774514351407,-0.05267244,0.31603462,11.21444,-0.19058995,0.018325957,-0.030543262,12.48,15.9,-27.84
1774514351427,-0.16759412,0.60333884,11.319786,-0.02443461,0.06719518,0.028099801,12.48,15.599999,-27.599998
1774514351448,-0.08140286,0.91458505,11.046846,0.07086037,0.13072516,0.0720821,12.059999,15.42,-27.9
1774514351468,0.02873042,0.81402856,10.960655,0.081855945,0.096516706,0.0842994,11.759999,14.88,-28.38
1774514351490,-0.019153614,0.49320555,11.405977,0.012217305,0.021991149,0.07819075,12.059999,14.88,-28.08
1774514351511,-0.11971009,0.1436521,11.96622,-0.029321533,-0.009773844,0.06719518,11.58,15.12,-28.619999
1774514351531,-0.05267244,-0.9624691,12.330139,-0.14782938,-0.047647487,-0.059864793,12.179999,15.299999,-28.5
1774514351551,-0.272939,-2.6288335,13.110648,-0.14782938,-0.047647487,-0.059864793,12.3,15.54,-28.26
1774514351571,-0.16759412,-3.0071173,13.297397,0.63529986,-0.25900686,0.032986723,12.24,15.66,-28.08
1774514351591,0.009576807,-3.074155,12.349293,1.1374311,-0.22968534,0.14660765,12.9,15.42,-27.48
1774514351612,0.11492168,-2.9640217,10.117896,1.2999213,-0.16249016,0.25045475,13.08,15.599999,-27.96
1774514351633,-0.10055647,-2.5617957,8.09719,1.1362094,-0.09162979,0.28099802,13.32,15.54,-27.9
1774514351654,-0.47884035,-2.231396,6.588843,0.75869465,-0.095294975,0.2565634,13.74,14.88,-28.56
1774514351674,-0.81881696,-2.1787236,6.0381765,0.26145032,-0.103847094,0.21746802,13.86,14.219999,-28.98
1774514351694,-0.7278373,-2.542642,7.560889,-0.15393804,-0.034208454,0.1881465,13.62,12.719999,-29.099998
1774514351714,-0.62728083,-2.4133554,8.403648,-0.27366763,-0.04153884,0.16126843,13.74,12.059999,-29.699999
1774514351735,-0.21547815,-2.111686,8.901642,-0.2724459,-0.073303826,0.14294247,12.84,10.92,-30.119999
1774514351754,0.17717093,-1.8100165,9.088389,-0.24678956,-0.089186326,0.12095132,12.54,10.26,-30.06
1774514351775,0.34476504,-1.5753847,9.279925,-0.2284636,-0.09773844,0.13072516,12.36,10.08,-29.939999
1774514351796,0.272939,-1.3024458,9.423578,-0.267559,-0.012217305,0.1685988,12.719999,10.139999,-29.76
1774514351846,-0.23463176,-0.9624691,9.921572,-0.22357668,-0.0036651916,0.3005457,13.259999,11.759999,-30.119999
1774514351865,-0.19153613,-0.5650316,9.801862,-0.13561209,-0.12095132,0.32253686,13.0199995,11.46,-29.76
1774514351885,-0.08619126,-0.33039984,9.792285,-0.26145032,0.087964594,0.21380283,12.96,10.98,-30.06
1774514351906,-0.19632454,-0.51235914,9.964667,-0.27855456,0.17959438,0.103847094,12.84,11.099999,-30.0
1774514351926,-0.01436521,-0.59855044,10.25676,-0.17715092,0.089186326,0.032986723,12.54,10.86,-30.539999
1774514351948,0.10055647,-0.8475474,10.342952,-0.036651913,-0.08307768,-0.02687807,12.42,11.099999,-31.32
1774514351967,0.51235914,-0.770933,10.414778,0.05375614,-0.18448131,-0.06719518,12.599999,11.759999,-31.019999
1774514351987,0.866701,-0.6703765,10.620679,0.095294975,-0.17348573,-0.16615535,12.54,11.94,-31.14
1774514352008,0.8858546,-0.5793968,10.759542,0.17104226,-0.05131268,-0.24801129,12.66,12.0,-30.72
1774514352028,0.5793968,-0.60333884,10.342952,0.30909783,0.06963864,-0.2883284,12.78,12.059999,-30.48
1774514352048,0.31124622,-0.48841715,9.888053,0.4373795,0.080634214,-0.28710666,12.3,11.46,-29.939999
1774514352068,-0.033518825,-0.31603462,9.619903,0.49235737,0.064751714,-0.28221974,11.94,10.92,-30.3
1774514352088,-0.24899697,0.10534488,9.356541,0.52290064,0.064751714,-0.27366763,11.82,10.5,-30.179998
1774514352108,-0.25857377,-0.019153614,9.461885,0.44959682,0.043982297,-0.30543262,11.58,9.9,-30.3
1774514352129,-0.10534488,-0.4165911,9.998186,0.34697145,0.08674286,-0.3286455,12.0,9.84,-31.56
1774514352149,0.2873042,-0.50757074,9.916783,0.70005155,-0.032986723,-0.38973203,12.42,9.719999,-31.38
1774514352169,0.6943185,-0.04309563,8.700529,0.86009824,-0.23579398,-0.38973203,12.42,9.599999,-32.04
1774514352188,0.9528923,0.11971009,7.4124484,0.86009824,-0.23579398,-0.38973203,12.179999,9.24,-32.399998
1774514352209,1.2880806,0.45010993,7.0245876,0.6084218,-0.3481932,-0.312763,11.88,8.5199995,-32.28
1774514352229,1.4077905,0.8283938,7.2209125,-0.50579643,-0.05131268,-0.21380283,12.0,8.5199995,-32.88
1774514352249,0.81881696,0.5793968,8.499416,-0.50579643,-0.05131268,-0.21380283,11.58,8.16,-32.82
1774514352269,-0.15801731,0.30166942,9.92636,-0.86498517,0.30787608,-0.18325958,12.0,8.34,-33.12
1774514352288,-0.62728083,0.30645782,10.486604,-0.82711154,0.49846604,-0.12705997,11.639999,8.5199995,-32.82
1774514352310,-0.31124622,0.2825158,10.261548,-0.17837265,0.07941248,-0.08674286,11.16,8.639999,-32.46
1774514352330,0.090979666,0.50278234,9.648633,-0.05131268,-0.118507855,-0.1160644,11.16,8.94,-32.219997
1774514352350,0.39743748,0.545878,9.050082,-0.05131268,-0.118507855,-0.1160644,10.38,8.639999,-31.679998
1774514352371,0.50278234,0.8379706,8.623915,-0.080634214,-0.12339478,-0.10873401,10.74,9.42,-32.16
1774514352391,0.46447513,1.0726024,8.470686,-0.28955013,-0.036651913,0.035430185,10.8,9.12,-32.28
1774514352411,0.51235914,1.0869676,8.504205,-0.42394048,-0.04153884,0.081855945,11.28,9.599999,-32.16
1774514352431,0.3878607,1.0199299,9.074024,-0.44837508,-0.02687807,0.111177474,11.88,10.679999,-32.16
1774514352452,0.095768064,0.8810662,9.586384,-0.408058,0.02076942,0.16126843,11.7,11.04,-31.199999
1774514352472,-0.038307227,0.81881696,9.763555,-0.3921755,0.052534413,0.18448131,11.759999,11.58,-31.199999
1774514352493,-0.009576807,0.8810662,9.835381,-0.3652974,0.052534413,0.20280726,11.46,11.639999,-30.96
1774514352512,0.0047884034,0.8571242,10.0748005,-0.27977628,0.043982297,0.2284636,10.8,11.16,-31.08
1774514352534,-0.009576807,0.79487497,10.290278,-0.1563815,0.043982297,0.26145032,10.62,11.04,-31.56
1774514352555,-0.038307227,0.7086837,9.945514,-0.07696902,0.035430185,0.29077184,10.0199995,10.86,-31.14
1774514352575,-0.110133275,0.7278373,9.888053,-0.02687807,0.004886922,0.3115413,9.599999,10.679999,-31.439999
1774514352595,-0.01436521,0.79487497,9.782708,0.03176499,-0.0012217305,0.3555236,9.719999,10.92,-31.199999
1774514352615,0.1388637,0.8571242,9.739613,0.052534413,-0.035430185,0.38606682,9.719999,10.679999,-31.14
1774514352636,0.44532153,0.9959879,9.868899,0.030543262,-0.052534413,0.39950588,10.44,11.219999,-31.199999
1774514352657,0.7134721,0.7374141,10.419566,-0.057421334,-0.062308256,0.37140608,10.5,11.34,-31.14
1774514352678,0.94810385,0.5602432,11.066,-0.16126843,-0.035430185,0.3359759,10.5,11.46,-31.019999
1774514352699,1.3359646,0.30166942,11.75553,-0.2565634,-0.015882496,0.26145032,9.96,10.86,-31.019999
1774514352720,1.3551182,-0.60333884,12.612655,-0.2761111,0.029321533,0.12217305,9.78,10.5,-31.14
1774514352740,0.8379706,-1.8435353,13.101071,-0.29565877,0.172264,0.0,9.9,10.679999,-31.14
1774514352761,0.3878607,-2.585738,13.259089,-0.14538592,0.17715092,-0.030543262,9.78,11.16,-31.5
1774514352782,0.01436521,-3.0262709,12.469003,0.32620203,0.07819075,0.0036651916,9.9,11.5199995,-31.199999
1774514352804,-0.23942018,-2.9352913,10.390836,0.77946407,0.014660766,0.061086524,10.2,12.36,-31.019999
1774514352826,-0.545878,-2.944868,8.7053175,0.9114109,-0.06719518,0.065973446,9.96,12.0,-30.84
1774514352847,-0.8571242,-2.825158,7.809886,0.75869465,-0.10262536,0.058643065,10.139999,11.7,-31.08
1774514352869,-1.1827357,-2.6910827,7.5848308,0.4447099,-0.105068825,0.040317107,10.32,11.16,-31.619999
1774514352889,-1.2497733,-2.657564,8.001422,0.12950343,-0.09162979,0.04886922,10.74,10.32,-32.34
1774514352910,-1.1587936,-2.6001031,8.465898,0.034208454,-0.061086524,0.08552113,10.62,9.84,-33.059998
1774514352930,-0.770933,-2.1452048,8.556877,0.09896017,-0.09773844,0.12705997,10.2,9.24,-32.88
1774514352951,-0.21547815,-1.6136919,8.288726,0.028099801,-0.12217305,0.087964594,9.78,8.88,-33.3
1774514352971,0.1436521,-1.4077905,8.494628,-0.06841691,-0.0842994,0.081855945,9.12,8.76,-33.059998
1774514352993,0.19632454,-1.3311762,8.6813755,-0.17470746,-0.029321533,0.10751228,9.12,8.76,-33.18
1774514353013,0.2681506,-1.2641385,9.107543,-0.2321288,0.06352998,0.1441642,8.88,8.28,-33.18
1774514353033,-0.22505496,-1.163582,8.939949,-0.22113322,0.02687807,0.204029,8.76,8.58,-33.12
1774514353052,-0.2777274,-1.0726024,9.399636,-0.3481932,0.17470746,0.20280726,9.12,8.5199995,-33.36
1774514353073,-0.5315128,-1.2210429,9.672575,-0.3885103,0.25411993,0.1685988,8.76,8.099999,-32.82
1774514353092,-0.48841715,-1.0726024,9.725247,-0.32620203,0.2321288,0.13805555,9.3,8.88,-32.88
1774514353113,-0.2825158,-1.0486604,9.916783,-0.2883284,0.19181168,0.0842994,9.78,9.24,-32.88
1774514353133,-0.12928689,-1.043872,10.070012,-0.23335053,0.12339478,0.014660766,9.42,9.059999,-32.52
1774514353152,-0.038307227,-1.0582372,10.13705,-0.18936823,0.05009095,-0.057421334,9.96,9.84,-32.579998
1774514353183,0.22505496,-0.94331545,10.424355,-0.13805555,0.002443461,-0.12950343,9.179999,9.42,-32.579998
1774514353204,0.32561144,-0.842759,10.491392,-0.04153884,0.08674286,-0.22235495,9.599999,9.78,-32.579998
1774514353225,0.22505496,-0.7182605,10.199299,0.09407325,0.17837265,-0.29810223,9.36,9.9,-32.82
1774514353247,0.1436521,-0.4405331,9.696517,0.19914207,0.24923302,-0.34574974,9.42,10.08,-32.82
1774514353267,-0.047884032,-0.7182605,9.615114,0.14294247,0.23823744,-0.38728857,9.719999,10.32,-32.82
1774514353288,-0.095768064,-1.0630256,10.156203,0.15393804,0.2883284,-0.35918877,9.54,10.62,-33.059998
1774514353308,0.08619126,-1.0342951,10.314221,0.48624873,0.21013765,-0.31887165,9.42,10.32,-33.18
1774514353329,0.32561144,-0.59376204,9.279925,0.6646214,0.02565634,-0.30298916,9.48,10.139999,-33.3
1774514353349,0.63206923,-0.21547815,8.169016,0.5558874,-0.14172074,-0.2846632,9.66,10.5,-33.18
1774514353370,0.866701,-0.019153614,7.5704656,0.1685988,-0.204029,-0.28099802,9.719999,9.9,-33.18
1774514353391,0.8475474,0.21068975,7.6710224,-0.25411993,-0.11362094,-0.28955013,9.84,9.599999,-33.6
1774514353412,0.48362875,0.25857377,8.48984,-0.5681047,0.04520403,-0.2932153,9.599999,9.3,-33.78
1774514353431,-0.17238252,0.1388637,9.739613,-0.6963864,0.16493362,-0.2773328,9.599999,8.76,-34.5
1774514353452,-1.2114661,0.019153614,11.525687,-0.59620446,0.25900686,-0.21991149,8.22,8.58,-35.34
1774514353472,-1.2114661,0.019153614,11.525687,-0.29810223,0.28099802,-0.19547687,7.56,9.3,-35.219997
1774514353492,-1.2689269,0.24899697,11.410766,0.018325957,0.18448131,-0.18936823,7.74,9.66,-34.739998
1774514353513,-1.067814,0.5410896,9.557653,0.2565634,-0.043982297,-0.13927728,7.08,9.84,-34.26
1774514353533,-0.58418524,0.6368576,8.978256,0.35185838,-0.20647246,-0.06719518,7.98,10.139999,-33.36
1774514353554,-0.21068975,0.6512229,8.623915,0.39095375,-0.25411993,-0.017104227,8.28,9.599999,-33.18
1774514353574,0.10534488,0.6895301,8.432379,0.3652974,-0.19303341,0.014660766,8.28,9.3,-33.3
1774514353594,0.31124622,0.6703765,8.1881695,0.28588495,-0.0720821,0.004886922,8.4,9.48,-33.18
1774514353615,0.320823,0.60812724,8.135497,0.14294247,-0.010995574,-0.009773844,8.88,9.66,-33.18
1774514353636,0.19153613,0.6655881,8.595184,-0.02443461,0.009773844,0.0036651916,9.179999,9.9,-33.54
1774514353656,0.2633622,0.7134721,9.126697,-0.1563815,0.002443461,0.05497787,9.12,10.26,-33.84
1774514353676,0.32561144,0.842759,9.821015,-0.19792034,-0.058643065,0.08307768,8.94,9.66,-33.78
1774514353697,0.2777274,1.0582372,10.46745,-0.19792034,-0.089186326,0.09285152,7.9199996,9.3,-34.32
1774514353718,0.14844051,1.2258313,11.003751,-0.119729586,-0.065973446,0.095294975,7.9199996,9.3,-34.14
1774514353739,0.0,1.364695,11.022904,0.03176499,-0.02565634,0.105068825,7.9199996,9.3,-34.14
1774514353759,-0.01436521,1.3503298,10.6398325,0.1881465,-0.013439035,0.12339478,7.7999997,9.24,-34.32
1774514353780,-0.033518825,1.3024458,10.117896,0.2846632,-0.043982297,0.14905111,8.5199995,10.08,-33.78
1774514353802,0.08140286,1.2306197,9.950302,0.33353242,-0.09162979,0.17348573,8.4,9.9,-33.719997
1774514353822,0.22026655,1.1923125,9.68694,0.35063666,-0.09285152,0.19303341,8.58,10.38,-33.78
1774514353844,0.30166942,1.1827357,9.548077,0.28955013,-0.11728613,0.20280726,8.7,9.96,-33.84
1774514353865,0.12449849,0.90021986,10.108319,0.06963864,-0.073303826,0.204029,8.7,10.08,-34.2
1774514353886,-0.11971009,0.5602432,11.15698,-0.119729586,0.040317107,0.21380283,8.099999,9.42,-34.8
1774514353906,-0.076614454,-0.009576807,11.688493,-0.17837265,0.13439035,0.20891592,8.16,9.179999,-34.86
1774514353927,0.16759412,-0.9768343,11.942278,-0.12705997,0.09773844,0.13072516,7.74,8.94,-34.98
1774514353949,-0.038307227,-1.8052281,12.20564,-0.036651913,-0.009773844,0.03176499,7.5,8.88,-34.44
1774514353970,-0.18195933,-1.9393034,11.9374895,0.17715092,-0.096516706,0.05375614,7.68,9.42,-34.26
1774514353991,-0.10055647,-2.1164744,10.702082,0.5412266,-0.052534413,0.15271631,7.2,9.179999,-34.14
1774514354011,-0.22026655,-2.1452048,9.409213,0.41172317,-0.059864793,0.1282817,7.08,9.179999,-34.079998
1774514354031,-0.39743748,-2.0829554,8.6334915,0.26511553,-0.118507855,0.09285152,6.8399997,8.34,-34.62
1774514354051,-0.62249243,-2.2122424,8.441956,0.13316862,-0.16615535,0.07086037,7.14,8.099999,-34.44
1774514354073,-0.8858546,-2.0733786,8.686164,0.034208454,-0.12461651,0.062308256,7.08,7.9199996,-34.5
1774514354093,-0.7086837,-1.8004397,8.66701,0.043982297,-0.10262536,0.034208454,7.08,7.56,-35.1
1774514354113,-0.6464345,-1.5945383,8.441956,0.09162979,-0.10140363,-0.018325957,7.5,7.8599997,-35.04
1774514354133,-0.6464345,-1.5945383,8.441956,0.10751228,-0.19058995,-0.06352998,7.14,7.68,-35.04
1774514354152,-0.31603462,-1.283292,8.135497,0.04153884,-0.27855456,-0.080634214,7.3799996,7.8599997,-35.399998
1774514354173,0.11971009,-1.0151415,8.571242,-0.119729586,-0.28955013,-0.089186326,7.02,7.56,-34.98
1774514354193,0.34955344,-0.93373865,9.131485,-0.28344148,-0.21135938,-0.09773844,6.2999997,7.5,-35.16
1774514354214,0.34955344,-0.93373865,9.131485,-0.36774087,-0.09407325,-0.07086037,5.94,7.44,-35.76
1774514354234,0.04309563,-1.2689269,9.959879,-0.29810223,-0.014660766,0.0036651916,5.58,7.62,-35.46
1774514354255,-0.1436521,-0.91937345,9.394848,-0.1966986,0.043982297,0.042760566,5.52,8.099999,-35.579998
1774514354277,-0.095768064,-0.5746084,9.016563,-0.1881465,-0.012217305,-0.0012217305,5.7599998,8.639999,-35.579998
1774514354297,-0.60333884,-0.6703765,8.820239,-0.2968805,0.032986723,-0.056199603,5.7599998,8.94,-35.82
1774514354318,-0.866701,-0.7565677,9.193734,-0.44104472,0.02565634,-0.029321533,5.64,9.3,-35.88
1774514354340,-0.8810662,-0.9720459,9.763555,-0.54367006,0.05131268,0.012217305,4.8599997,9.179999,-35.76
1774514354359,-0.63206923,-1.2066777,10.352529,-0.5497787,0.073303826,0.04520403,4.7999997,9.54,-35.28
1774514354380,-0.33518824,-1.3455414,10.496181,-0.47158796,0.039095376,0.059864793,4.62,9.599999,-35.34
1774514354400,0.01436521,-1.115698,10.55843,-0.3640757,-0.057421334,0.04520403,4.3199997,9.78,-35.1
1774514354422,0.24899697,-0.9864111,10.630256,-0.26511553,-0.0036651916,0.0012217305,4.2599998,10.0199995,-34.44
1774514354442,0.16280572,-0.89064306,10.290278,-0.16249016,0.12583824,-0.02565634,4.2,10.559999,-34.559998
1774514354462,0.25857377,-0.5793968,10.170568,-0.11362094,0.19792034,-0.05131268,3.8999999,10.5,-34.38
1774514354482,0.15322891,-0.23942018,10.065224,0.015882496,0.23579398,-0.07696902,4.56,11.16,-34.44
1774514354503,0.4357447,-0.15801731,9.399636,0.14905111,0.18692477,-0.10140363,4.7999997,10.92,-34.92
1774514354523,0.92416185,-0.5410896,9.969456,0.06963864,-0.0036651916,-0.21624629,5.04,11.04,-34.739998
1774514354543,1.0295067,-1.115698,10.534488,0.057421334,-0.13072516,-0.32253686,5.22,10.8,-34.8
1774514354563,1.2545617,-0.8619126,10.395624,0.3200934,-0.23335053,-0.3286455,4.74,10.26,-34.8
1774514354583,1.4556746,-0.5650316,9.375694,0.5375614,-0.17959438,-0.2773328,4.74,10.62,-34.739998
1774514354604,1.6184803,-0.16759412,8.825027,0.4288274,-0.14905111,-0.2125811,4.7999997,10.74,-34.98
1774514354624,1.3072342,0.2681506,9.083601,0.096516706,0.02687807,-0.17715092,4.7999997,11.04,-35.28
1774514354643,0.35913026,0.23463176,9.466674,-0.09896017,0.2443461,-0.16615535,4.8599997,10.8,-35.52
1774514354664,-0.62728083,0.01436521,9.648633,-0.103847094,0.35308012,-0.12339478,4.8599997,10.8,-35.52
1774514354684,-1.0773908,0.038307227,9.203311,-0.012217305,0.28588495,-0.04642576,4.38,10.2,-35.82
1774514354706,-1.1061212,0.22984336,8.748413,0.07574729,0.07819075,0.010995574,4.2,9.84,-35.46
1774514354726,-0.842759,0.4261679,8.327033,0.095294975,-0.096516706,0.02565634,4.08,9.719999,-35.16
1774514354747,0.047884032,0.7182605,8.331821,0.009773844,-0.172264,0.019547688,4.38,9.9,-35.28
1774514354767,-0.10534488,0.47405192,8.623915,-0.095294975,-0.105068825,-0.042760566,4.3199997,9.599999,-35.28
1774514354787,0.44532153,0.7278373,9.006987,-0.112399206,-0.0842994,0.0036651916,4.62,9.96,-35.76
1774514354808,0.7182605,0.92416185,9.155427,-0.0720821,-0.05131268,-0.0012217305,4.68,10.08,-35.94
1774514354830,0.79008657,0.9911995,9.23683,-0.10140363,0.010995574,0.039095376,4.2599998,9.719999,-35.82
1774514354850,0.8714894,1.3551182,9.476251,-0.12950343,0.02443461,0.02321288,4.2599998,9.96,-35.28
1774514354871,0.7757214,1.2880806,9.562442,-0.1685988,0.018325957,0.028099801,3.78,9.84,-34.86
1774514354891,0.7086837,1.1875241,9.864111,-0.204029,0.030543262,0.02565634,3.84,9.96,-34.92
1774514354911,0.5315128,0.8619126,10.156203,-0.15882497,0.039095376,0.04153884,3.78,10.26,-34.739998
1774514354933,0.35434186,0.58897364,10.414778,-0.059864793,0.057421334,0.058643065,3.72,10.62,-34.5
1774514354953,-0.033518825,0.6847417,10.093954,0.037873644,0.014660766,0.08307768,4.2599998,11.219999,-34.26
1774514354973,-0.033518825,0.6847417,10.093954,0.089186326,-0.039095376,0.103847094,3.8999999,10.92,-33.899998
1774514354992,0.22984336,1.0295067,9.935937,0.08307768,-0.087964594,0.09162979,3.72,10.74,-33.78
1774514355014,0.22984336,1.0295067,9.935937,0.02076942,-0.1160644,0.10751228,4.02,10.92,-34.26
1774514355034,0.78529817,1.0342951,10.97502,0.019547688,-0.13683382,0.10873401,4.08,10.98,-34.38
1774514355054,0.80445176,1.0151415,11.195287,0.09040806,-0.13072516,0.10873401,3.9599998,11.34,-34.86
1774514355073,0.6751649,0.45010993,11.563994,0.056199603,-0.14905111,0.08552113,3.78,11.34,-35.1
1774514355094,0.110133275,-0.076614454,12.272678,0.029321533,-0.09040806,0.073303826,3.36,11.099999,-34.98
1774514355113,-0.29209262,-0.7422025,12.0093155,0.21380283,-0.037873644,0.0842994,2.8799999,10.8,-35.04
1774514355134,-0.40222588,-1.9009962,11.233594,0.37507126,-0.0036651916,0.12705997,2.52,10.44,-35.04
1774514355153,-0.4213795,-2.3942018,10.481815,0.38973203,-0.037873644,0.17592919,2.22,9.96,-35.16
1774514355174,-0.1436521,-2.231396,9.911995,0.4886922,-0.15760323,0.22724187,2.58,10.139999,-35.34
1774514355195,0.023942016,-2.4851813,8.872911,0.6267477,-0.23335053,0.23945917,2.46,10.0199995,-35.7
1774514355215,-0.076614454,-2.60968,8.279149,0.4813618,-0.2321288,0.23823744,3.06,10.26,-35.94
1774514355236,-0.17717093,-2.6623523,8.561666,0.13927728,-0.17715092,0.24190263,3.36,10.0199995,-35.76
1774514355257,-0.40222588,-2.8203697,9.011775,-0.07574729,-0.08307768,0.2602286,3.12,9.54,-36.239998
1774514355279,-0.59376204,-2.825158,9.380483,-0.16249016,-0.02565634,0.27488935,2.22,8.04,-36.0
1774514355299,-0.60812724,-2.5330653,9.332599,-0.11728613,0.02565634,0.2919936,2.46,8.28,-36.48
1774514355322,-0.32561144,-1.9249382,8.772355,-0.052534413,0.035430185,0.28588495,2.28,8.5199995,-36.42
1774514355343,0.1340753,-1.460463,8.293514,-0.02076942,-0.05131268,0.24801129,3.12,9.54,-36.059998
1774514355365,0.6368576,-1.1348516,8.240842,-0.06719518,-0.112399206,0.19303341,2.7,9.599999,-36.18
1774514355386,0.866701,-0.94810385,8.485051,-0.16982053,-0.10751228,0.12095132,2.1599998,9.42,-35.76
1774514355407,0.8858546,-0.91458505,8.738836,-0.22968534,-0.07819075,0.0842994,2.34,9.84,-35.82
1774514355428,0.8283938,-0.8523358,9.313444,-0.2761111,-0.018325957,0.07452556,1.68,9.179999,-36.059998
1774514355449,0.4213795,-0.9720459,9.471462,-0.23579398,0.06352998,0.10262536,2.3999999,9.9,-35.46
1774514355470,-0.07182605,-1.115698,9.749189,-0.23579398,0.06352998,0.10262536,3.0,10.86,-35.7
1774514355490,-0.50757074,-1.3359646,9.854534,-0.22602014,0.10751228,0.12461651,3.06,11.28,-35.7
1774514355519,-0.2633622,-1.2354081,9.792285,-0.25289822,0.0036651916,0.09040806,3.54,12.78,-36.3
1774514355539,-0.31603462,-1.3215994,9.983821,-0.31764993,0.07696902,0.029321533,3.06,12.42,-35.76
1774514355559,-0.076614454,-1.1587936,9.993398,-0.267559,0.07696902,0.029321533,2.76,11.94,-35.52
1774514355580,0.05746084,-0.90021986,9.878476,-0.19058995,0.06841691,0.02565634,2.6399999,12.0,-35.399998
1774514355601,0.15801731,-0.6607997,9.816227,-0.10873401,0.02076942,0.019547688,1.9799999,11.16,-35.399998
1774514355621,0.25378537,-0.5315128,9.634268,-0.05009095,-0.008552114,0.002443461,2.34,11.82,-35.88
1774514355642,0.11492168,-0.4357447,9.696517,-0.096516706,0.0,-0.032986723,2.22,12.059999,-35.82
1774514355661,0.095768064,-0.5410896,10.132261,-0.14049901,0.09896017,-0.052534413,2.46,12.0,-35.76
1774514355682,0.37349546,-0.14844051,10.247183,-0.0720821,0.18325958,-0.04153884,3.06,12.599999,-35.579998
1774514355702,0.36391866,-0.21547815,10.0269165,0.061086524,0.15027285,-0.0842994,2.82,11.94,-35.64
1774514355722,0.521936,-0.8714894,10.189722,0.010995574,0.087964594,-0.14660765,3.24,12.719999,-36.12
1774514355741,0.8571242,-1.3455414,10.879252,-0.028099801,0.089186326,-0.2406809,2.8799999,12.9,-36.66
1774514355762,1.1061212,-1.2785037,10.673351,0.21135938,0.09773844,-0.29565877,2.6399999,12.54,-36.719997
1774514355782,1.4652514,-0.81881696,8.834604,0.6462954,-0.019547688,-0.30909783,2.58,12.84,-36.78
1774514355802,1.8243817,-0.56982,7.771579,0.71959925,-0.28955013,-0.3408628,1.9799999,12.059999,-36.66
1774514355822,2.0446482,-0.10534488,7.7093296,0.4813618,-0.42149702,-0.3652974,2.22,12.179999,-36.48
1774514355843,1.70946,-0.038307227,8.288726,-0.06352998,-0.20647246,-0.39828414,2.04,12.3,-36.78
1774514355863,0.8379706,-0.39264908,9.533711,-0.49235737,0.13683382,-0.38606682,1.9799999,12.12,-37.02
1774514355883,0.05267244,-0.45010993,10.534488,-0.5693264,0.40317106,-0.32253686,2.04,11.88,-36.96
1774514355903,-0.2777274,-0.25378537,10.28549,-0.38973203,0.516792,-0.2687807,1.74,11.759999,-37.5
1774514355923,-0.4165911,0.0047884034,9.615114,-0.09407325,0.37384954,-0.2602286,1.62,11.759999,-37.62
1774514355943,-0.61291564,0.19632454,8.6813755,0.12095132,0.13316862,-0.2602286,1.1999999,11.4,-37.079998
1774514355963,-0.4261679,0.33518824,7.9631147,0.12461651,-0.095294975,-0.21868975,1.26,11.88,-37.079998
1774514355984,0.04309563,0.44532153,8.1881695,-0.004886922,-0.22602014,-0.17348573,1.38,11.639999,-36.42
1774514356005,0.4309563,0.5363012,8.6334915,-0.0720821,-0.19303341,-0.13805555,1.1999999,11.88,-36.18
1774514356026,0.641646,0.39264908,8.767567,-0.1001819,-0.105068825,-0.10262536,1.62,12.66,-36.36
1774514356046,0.58418524,0.272939,9.021352,-0.18936823,-0.028099801,-0.06963864,1.26,12.3,-36.3
1774514356066,0.46447513,0.272939,9.509769,-0.29443705,0.05131268,-0.007330383,0.9,12.42,-36.059998
1774514356087,0.2825158,0.46926352,10.060435,-0.30176744,0.09040806,0.040317107,0.84,12.24,-35.579998
1774514356108,0.1340753,0.7374141,10.218452,-0.22968534,0.13072516,0.07452556,0.59999996,12.12,-35.579998
1774514356129,0.0,0.8810662,10.228029,-0.12583824,0.12705997,0.095294975,0.65999997,12.54,-35.399998
1774514356149,0.033518825,0.8379706,10.338163,-0.095294975,0.08307768,0.11362094,0.71999997,12.599999,-35.579998
1774514356169,0.22984336,0.89543146,10.625467,-0.059864793,0.02321288,0.12217305,0.84,12.9,-35.64
1774514356190,0.45489833,0.81881696,10.778696,0.12583824,-0.04520403,0.12583824,1.02,13.08,-35.82
1774514356211,0.5410896,0.7613561,10.850522,0.204029,-0.059864793,0.14660765,1.4399999,13.44,-35.88
1774514356231,0.4405331,0.7613561,10.778696,0.27122417,-0.040317107,0.18203785,1.56,13.86,-36.0
1774514356252,0.4213795,0.90979666,10.6158905,0.267559,-0.029321533,0.18448131,1.68,13.92,-36.12
1774514356272,0.545878,1.0965444,10.400413,0.15882497,-0.008552114,0.14049901,1.3199999,13.86,-35.88
1774514356292,0.58418524,0.7182605,10.773908,0.1001819,0.007330383,0.10262536,1.1999999,13.92,-35.94
1774514356314,0.521936,0.2681506,11.334151,0.17715092,-0.052534413,0.07086037,1.3199999,13.74,-36.12
1774514356334,0.79008657,-0.9911995,11.650186,0.2932153,-0.17104226,0.015882496,1.5,13.799999,-35.94
1774514356354,1.0103531,-1.5705963,11.27669,0.28221974,-0.27122417,-0.010995574,1.8,13.799999,-36.239998
1774514356374,0.5506664,-2.303222,11.391612,0.21746802,-0.20891592,-0.032986723,1.3199999,13.08,-36.42
1774514356395,0.4357447,-2.4899697,10.927136,0.37384954,-0.09773844,0.028099801,1.1999999,13.139999,-36.78
1774514356415,0.45489833,-2.566584,9.744401,0.54000485,-0.05009095,0.04153884,0.71999997,12.84,-37.559998
1774514356436,0.095768064,-2.6048915,8.599973,0.5534439,-0.07574729,0.008552114,0.29999998,12.3,-37.86
1774514356456,-0.25378537,-2.8060043,8.135497,0.36896262,-0.15760323,-0.012217305,0.35999998,12.3,-38.04
1774514356476,-0.29209262,-2.9400797,8.331821,0.10629055,-0.1685988,-0.007330383,-0.12,11.34,-37.559998
1774514356496,-0.17717093,-2.6671407,8.911219,-0.081855945,-0.12705997,0.002443461,-0.06,10.74,-37.5
1774514356516,0.04309563,-2.3127987,9.078813,-0.064751714,-0.056199603,-0.02687807,-0.53999996,9.96,-37.559998
1774514356537,0.12928689,-1.8531121,8.619126,0.02443461,-0.05009095,-0.052534413,-0.84,9.42,-37.559998
1774514356558,0.18195933,-1.5227122,8.197746,0.04886922,-0.09407325,-0.058643065,-0.96,9.3,-37.68
1774514356577,0.2825158,-1.1875241,8.1402855,-0.004886922,-0.16371189,-0.05497787,-0.78,10.32,-37.86
1774514356598,0.2681506,-1.0151415,8.379706,-0.119729586,-0.13439035,-0.052534413,-0.35999998,10.74,-37.86
1774514356619,0.1388637,-1.0055647,8.805874,-0.23701571,-0.02687807,-0.052534413,-0.12,11.16,-38.04
1774514356638,-0.18195933,-1.1300632,9.562442,-0.31031954,0.103847094,-0.035430185,-0.17999999,11.219999,-37.98
1774514356659,-0.6799533,-1.3311762,9.639056,-0.20280726,0.096516706,0.017104227,-0.59999996,11.4,-37.86
1774514356698,-0.62249243,-1.2449849,9.706094,-0.25534168,-0.019547688,0.06963864,-1.3199999,10.92,-37.92
1774514356719,-0.7374141,-1.4077905,10.01734,-0.32742378,0.1881465,0.112399206,-1.56,11.34,-37.86
1774514356739,-0.11492168,-1.2641385,9.696517,-0.23457226,0.16982053,0.1685988,-1.4399999,11.7,-37.26
1774514356758,0.44532153,-1.2114661,9.437943,-0.18936823,0.02687807,0.14172074,-1.1999999,11.88,-37.5
1774514356779,0.7757214,-1.1779473,9.639056,-0.20280726,-0.07574729,0.08552113,-1.3199999,11.639999,-37.14
1774514356800,0.9816227,-1.1444284,9.959879,-0.17104226,-0.095294975,0.037873644,-1.68,11.639999,-37.079998
1774514356820,1.0965444,-0.9624691,9.902418,-0.0842994,-0.05131268,0.004886922,-1.38,12.0,-37.079998
1774514356839,0.8762778,-0.866701,9.634268,-0.056199603,0.040317107,-0.04642576,-1.3199999,12.66,-36.66
1774514356859,0.5506664,-0.641646,9.725247,-0.07941248,0.15027285,-0.10140363,-0.78,13.559999,-37.079998
1774514356880,0.23463176,-0.4357447,9.682152,-0.037873644,0.27122417,-0.13927728,-0.48,13.62,-37.38
1774514356900,0.0,-0.40222588,9.279925,0.036651913,0.26389378,-0.1563815,-1.14,12.9,-37.98
1774514356920,0.095768064,-0.842759,9.576807,-0.035430185,0.16982053,-0.18325958,-0.84,13.08,-37.739998
1774514356940,0.2873042,-1.2545617,10.290278,-0.08552113,0.08674286,-0.23823744,-1.02,12.48,-37.62
1774514356960,0.6512229,-1.2401965,10.218452,0.12217305,-0.030543262,-0.26633725,-0.96,12.54,-37.62
1774514356980,1.067814,-0.866701,9.054871,0.37507126,-0.15515977,-0.25289822,-0.29999998,13.0199995,-37.739998
1774514357001,1.3790601,-0.45010993,8.614338,0.3213151,-0.2406809,-0.22602014,-0.29999998,13.0199995,-38.34
1774514357021,1.5705963,-0.05267244,8.585608,0.059864793,-0.17837265,-0.19058995,-0.42,12.96,-38.46
1774514357042,1.4508862,0.12928689,9.23683,-0.3042109,0.02076942,-0.17592919,-1.26,12.3,-38.94
1774514357062,0.7134721,0.0,10.113108,-0.5204572,0.24678956,-0.16371189,-1.4399999,12.0,-39.12
1774514357082,-0.095768064,-0.1340753,10.443508,-0.5693264,0.46303585,-0.11728613,-1.62,11.94,-38.82
1774514357103,-0.56982,-0.08619126,10.366894,-0.49235737,0.47891834,-0.06963864,-1.1999999,12.48,-38.34
1774514357123,-0.8571242,-0.08140286,10.0029745,-0.30298916,0.3213151,-0.043982297,-0.59999996,13.2,-37.98
1774514357144,-0.89064306,-0.1436521,9.495404,-0.112399206,0.07941248,-0.008552114,-0.48,13.74,-37.62
1774514357164,-0.45489833,-0.23463176,9.394848,-0.036651913,-0.1001819,0.02443461,-0.29999998,13.92,-37.32
1774514357185,0.16759412,-0.04309563,9.313444,0.02565634,-0.14294247,0.04886922,-0.42,13.98,-37.32
1774514357205,0.7086837,0.05746084,8.959103,0.0720821,-0.1282817,0.06963864,-0.17999999,14.5199995,-37.14
1774514357225,1.1731589,0.20590134,8.6813755,0.043982297,-0.07452556,0.07941248,-0.29999998,14.219999,-36.899998
1774514357246,1.3359646,0.23463176,8.652645,-0.036651913,-0.02076942,0.06841691,-0.78,13.86,-36.899998
1774514357267,1.1204864,0.08619126,8.930372,-0.13927728,-0.002443461,0.05497787,-0.9,13.559999,-36.84
1774514357288,1.1731589,0.12928689,9.385271,-0.21502456,0.030543262,0.06963864,-1.02,13.08,-36.719997
1774514357308,1.0295067,0.21547815,9.825804,-0.23945917,0.07941248,0.052534413,-0.71999997,14.099999,-36.96
1774514357328,0.6368576,0.19632454,10.170568,-0.22724187,0.13805555,0.035430185,-0.42,14.7,-37.14
1774514357349,0.29209262,0.272939,10.16578,-0.16737708,0.18203785,0.039095376,-0.65999997,14.94,-37.5
1774514357370,0.10534488,0.30645782,10.0508585,0.021991149,0.058643065,0.06719518,-1.4399999,14.34,-37.26
1774514357390,0.08140286,0.39743748,9.873688,0.021991149,0.058643065,0.06719518,-1.9799999,13.62,-37.32
1774514357411,0.1340753,0.6607997,9.5385,0.09773844,0.02076942,0.089186326,-1.74,13.799999,-37.26
1774514357432,0.14844051,0.6464345,9.270349,0.02687807,-0.004886922,0.1160644,-1.5,14.04,-37.44
1774514357452,0.20111294,0.6751649,9.504981,0.029321533,-0.037873644,0.14049901,-0.65999997,15.179999,-37.68
1774514357473,0.46447513,0.78050977,9.907207,0.07941248,-0.05009095,0.13439035,-0.96,14.94,-37.559998
1774514357493,0.60333884,0.7326257,9.964667,0.06841691,-0.10629055,0.10751228,-1.14,15.0,-37.44
1774514357514,0.78529817,0.19632454,10.6158905,0.037873644,-0.21502456,0.058643065,-0.96,15.059999,-37.14
1774514357536,0.40222588,-0.48841715,11.032481,0.05375614,-0.28588495,0.06352998,-0.9,15.48,-37.26
1774514357556,0.2825158,-0.7374141,11.190498,0.02076942,-0.30176744,0.15149458,-0.24,15.66,-37.079998
1774514357577,0.62249243,-0.7326257,11.353305,-0.034208454,-0.25289822,0.18448131,-0.06,15.839999,-37.559998
1774514357598,0.6991069,-1.6472107,11.45865,-0.10751228,-0.16249016,0.09162979,-1.14,14.759999,-37.32
1774514357620,0.48362875,-2.5617957,11.980585,-0.17470746,-0.13805555,-0.004886922,-1.86,14.7,-37.079998
1774514357641,0.21068975,-3.0262709,12.0571995,0.05009095,-0.16249016,-0.019547688,-2.28,14.4,-37.02
1774514357661,0.05267244,-3.3518825,10.994174,0.37751472,-0.12095132,0.039095376,-2.3999999,14.4,-37.2
1774514357683,0.038307227,-3.265691,9.629479,0.5204572,-0.07452556,0.0842994,-2.7,14.099999,-37.62
1774514357706,-0.18674773,-3.1507695,8.714894,0.48380527,-0.08307768,0.07941248,-2.3999999,14.16,-37.8
1774514357726,-0.49799395,-3.1651347,8.346188,0.33475417,-0.089186326,0.080634214,-2.52,13.799999,-37.92
1774514357748,-0.8475474,-3.0502129,8.307879,0.13194689,-0.035430185,0.10140363,-2.1,13.679999,-37.92
1774514357768,-0.866701,-2.9113493,8.532935,-0.013439035,0.02076942,0.15149458,-1.92,13.5,-37.38
1774514357788,-0.6607997,-2.7389667,8.662222,0.042760566,-0.043982297,0.20280726,-1.68,13.679999,-37.68
1774514357809,-0.2825158,-2.408567,8.446744,0.042760566,-0.043982297,0.20280726,-1.74,13.5,-37.86
1774514357829,0.17238252,-2.0494366,8.528147,0.014660766,-0.11484267,0.19914207,-1.56,13.74,-38.04
1774514357850,0.48841715,-1.7956513,8.839393,-0.04886922,-0.1160644,0.16493362,-1.56,13.92,-38.52
1774514357871,0.41180268,-1.958457,8.628703,-0.080634214,-0.13561209,0.19547687,-1.5,13.86,-38.7
1774514357893,0.32561144,-1.8435353,8.791509,-0.16249016,-0.047647487,0.21135938,-1.56,13.98,-38.399998
1774514357916,0.23463176,-1.7046716,8.992621,-0.20647246,0.0061086523,0.21013765,-1.38,13.98,-38.52
1774514357936,0.095768064,-1.6519991,9.184157,-0.26633725,0.0012217305,0.17104226,-0.96,14.34,-38.34
1774514357956,0.0047884034,-1.7429788,9.56723,-0.31887165,0.019547688,0.13072516,-1.0799999,14.5199995,-38.399998
1774514357976,0.272939,-1.7764976,10.01734,-0.30298916,0.052534413,0.11362094,-0.35999998,15.12,-38.399998
1774514357997,0.61291564,-1.8914193,10.275913,-0.24923302,0.047647487,0.080634214,-0.71999997,15.42,-38.399998
1774514358018,0.8331822,-1.8291701,10.5440645,-0.13561209,-0.07696902,0.057421334,-1.8,15.299999,-38.7
1774514358037,1.1348516,-1.4987702,10.6637745,0.017104227,-0.1563815,0.02565634,-2.7,14.639999,-38.94
1774514358058,1.2785037,-0.8762778,10.323798,0.11484267,-0.06963864,-0.030543262,-3.06,14.639999,-39.0
1774514358088,1.0726024,-0.63206923,10.022128,0.10995574,0.09896017,-0.10629055,-2.8799999,14.4,-38.94
1774514358109,0.641646,-0.45489833,10.065224,0.20769419,0.39461896,-0.18448131,-1.9799999,15.12,-38.7
1774514358130,0.04309563,-0.45010993,9.9790325,0.32742378,0.3323107,-0.18692477,-1.38,15.719999,-38.64
1774514358150,-0.16280572,-0.48362875,9.308656,0.31520647,0.17104226,-0.22968534,-1.3199999,15.54,-38.16
1774514358169,0.11492168,-1.0007763,9.840169,0.42638394,0.07819075,-0.2761111,-1.3199999,15.179999,-38.219997
1774514358189,0.6799533,-1.1109096,9.883265,0.5839872,-0.02443461,-0.28955013,-1.4399999,14.4,-38.46
1774514358210,1.091756,-1.0390835,9.074024,0.58032197,-0.105068825,-0.26145032,-1.56,14.099999,-38.399998
1774514358230,1.5753847,-0.7182605,8.259995,0.34330627,-0.13927728,-0.24190263,-1.3199999,13.98,-39.54
1774514358249,1.7429788,-0.6368576,8.231265,0.0061086523,-0.013439035,-0.21013765,-1.8,12.96,-39.54
1774514358270,1.5466543,-0.49799395,8.647857,-0.27977628,0.1600467,-0.20891592,-1.8,12.78,-39.719997
1774514358290,0.94331545,-0.49320555,9.533711,-0.39095375,0.34208453,-0.19181168,-1.74,12.84,-40.079998
1774514358311,0.17238252,-0.41180268,10.156203,-0.30787608,0.40194935,-0.14905111,-1.5,12.599999,-39.78
1774514358331,-0.095768064,-0.06703765,10.290278,-0.10262536,0.28344148,-0.14538592,-1.1999999,13.08,-40.14
1774514358351,-0.04309563,0.16759412,9.763555,0.0061086523,0.0720821,-0.17837265,-0.9,13.38,-40.14
1774514358372,0.11492168,0.32561144,9.279925,0.002443461,-0.09773844,-0.21380283,-0.59999996,13.259999,-40.2
1774514358392,0.39264908,0.31603462,9.3182335,0.035430185,-0.1160644,-0.20891592,-0.84,13.44,-40.079998
1774514358412,0.8379706,0.36391866,9.399636,0.08307768,-0.058643065,-0.19425514,-0.65999997,13.62,-39.78
1774514358432,0.9959879,0.30645782,9.059659,0.07574729,-0.034208454,-0.18081611,-0.9,13.5,-39.54
1774514358452,0.92416185,0.320823,8.7771435,0.035430185,-0.029321533,-0.15515977,-1.1999999,13.2,-39.78
1774514358473,0.92416185,0.41180268,8.710106,-0.02321288,-0.02076942,-0.13927728,-1.8,12.66,-39.66
1774514358493,0.59376204,0.46926352,8.844181,-0.07696902,0.05009095,-0.12461651,-1.3199999,13.259999,-39.84
1774514358514,0.35434186,0.6799533,8.954314,-0.13194689,0.11484267,-0.07086037,-1.68,13.2,-39.96
1774514358534,0.17717093,0.8619126,9.174581,-0.1600467,0.14538592,-0.0720821,-1.62,13.559999,-39.66
1774514358554,0.0047884034,0.8523358,9.193734,-0.16371189,0.1441642,-0.09285152,-1.62,13.559999,-40.2
1774514358574,0.17238252,0.6703765,9.720459,-0.23335053,0.07941248,-0.095294975,-2.46,13.2,-40.26
1774514358594,0.3878607,0.47884035,10.395624,-0.27488935,0.037873644,-0.062308256,-2.46,13.0199995,-40.14
1774514358616,0.4309563,0.51714754,10.91756,-0.19058995,-0.04520403,0.004886922,-2.46,13.0199995,-39.84
1774514358637,0.05267244,0.61291564,11.113884,0.032986723,0.004886922,0.04642576,-2.1599998,13.92,-39.42
1774514358657,-0.24420857,0.89064306,9.892841,0.31031954,0.040317107,0.10751228,-1.0799999,15.48,-39.059998
1774514358677,-0.25378537,1.1061212,9.097966,0.28710666,-0.018325957,0.14660765,-1.0799999,15.48,-39.059998
1774514358697,0.10055647,1.1923125,9.476251,0.12217305,-0.12217305,0.1881465,-0.65999997,14.94,-39.12
1774514358718,0.41180268,1.0151415,10.405201,-0.035430185,-0.15027285,0.20769419,-0.65999997,14.94,-39.12
1774514358738,0.41180268,0.37828386,11.33894,-0.13805555,-0.087964594,0.19792034,-1.68,13.559999,-39.66
1774514358758,0.545878,-0.10534488,12.109872,-0.21991149,-0.04886922,0.17592919,-1.68,13.559999,-39.66
1774514358779,0.35434186,-1.1061212,12.650962,-0.18448131,-0.04642576,0.10140363,-2.82,13.0199995,-39.66
1774514358798,0.08140286,-2.360683,13.201628,-0.10873401,-0.062308256,0.087964594,-2.3999999,13.44,-39.42
1774514358819,-0.023942016,-2.6910827,13.086706,0.11362094,-0.06841691,0.14172074,-2.1599998,13.559999,-39.36
1774514358838,-0.023942016,-2.7820623,11.415554,0.5852089,-0.06963864,0.22602014,-2.1,13.62,-39.42
1774514358858,-0.14844051,-2.6288335,9.356541,0.9211848,-0.081855945,0.2883284,-1.5,13.92,-39.36
1774514358878,-0.33039984,-2.5091233,7.714118,0.9077458,-0.089186326,0.29443705,-1.56,13.32,-39.3
1774514358900,-0.6560113,-2.6240451,6.9144545,0.6719518,-0.16126843,0.28344148,-1.56,12.66,-39.36
1774514358921,-0.7517793,-2.9113493,7.0485296,0.25289822,-0.18936823,0.27855456,-0.9,12.36,-39.66
1774514358943,-0.6368576,-3.1411927,8.030152,-0.18448131,-0.2125811,0.28710666,-1.26,11.46,-39.899998
1774514358962,-0.4309563,-3.0214825,8.939949,-0.3286455,-0.15271631,0.29077184,-1.38,10.98,-40.379997
1774514358983,-0.033518825,-2.5570073,9.246407,-0.26389378,-0.13927728,0.27855456,-1.1999999,11.46,-40.559998
1774514359004,0.51714754,-1.9871874,8.939949,-0.14172074,-0.17715092,0.2284636,-1.3199999,11.82,-40.86
1774514359025,0.79487497,-1.5466543,8.911219,-0.06719518,-0.24923302,0.172264,-1.02,12.54,-40.98
1774514359046,0.80445176,-1.283292,8.700529,-0.08552113,-0.25534168,0.14049901,-1.1999999,12.719999,-40.5
1774514359067,0.90021986,-1.0582372,9.002198,-0.1600467,-0.20158553,0.14049901,-1.9799999,12.3,-40.44
1774514359088,0.63206923,-1.0151415,9.179369,-0.2443461,-0.06352998,0.14172074,-2.28,12.059999,-39.899998
1774514359108,0.40701428,-0.9864111,8.37013,-0.25167647,-0.037873644,0.14905111,-2.52,12.24,-39.36
1774514359129,0.2777274,-0.90021986,9.217676,-0.4373795,0.13927728,0.052534413,-2.46,12.719999,-39.78
1774514359148,0.0047884034,-1.3215994,9.576807,-0.37018433,0.118507855,0.061086524,-2.1,13.2,-39.84
1774514359168,0.02873042,-1.4939818,9.830592,-0.33475417,0.073303826,0.080634214,-2.46,13.08,-40.5
1774514359189,0.07182605,-1.5658079,9.811439,-0.3555236,0.0,0.07086037,-2.3999999,13.44,-40.62
1774514359210,0.545878,-1.3838485,10.132261,-0.33353242,-0.0061086523,0.0036651916,-2.3999999,13.92,-40.2
1774514359230,0.7038953,-1.2880806,10.5919485,-0.26267207,0.05131268,-0.047647487,-2.1,14.28,-39.54
1774514359254,0.8619126,-0.81402856,10.505757,-0.2125811,0.17348573,-0.11484267,-2.1,14.759999,-38.94
1774514359274,0.7038953,-0.7613561,10.295067,-0.15882497,0.3200934,-0.17470746,-2.04,15.299999,-38.7
1774514359294,0.36391866,-0.80924016,10.247183,-0.081855945,0.35308012,-0.20647246,-2.3999999,14.88,-38.579998
1774514359314,-0.062249243,-0.91458505,10.237606,0.032986723,0.31764993,-0.20280726,-2.3999999,15.299999,-38.94
1774514359334,-0.18674773,-0.91937345,9.902418,0.13439035,0.26267207,-0.17348573,-2.1599998,15.54,-38.82
1774514359353,-0.090979666,-1.4556746,10.1226845,0.10751228,0.13805555,-0.1881465,-2.22,14.94,-39.18
1774514359374,-0.23463176,-1.7956513,10.812215,0.095294975,0.18325958,-0.19303341,-2.1,14.88,-39.36
1774514359394,0.019153614,-1.6041151,10.333375,0.32498032,0.2919936,-0.17470746,-2.04,14.4,-39.54
1774514359415,0.50757074,-1.0247183,8.580819,0.70005155,0.19425514,-0.17959438,-1.68,14.46,-39.059998
1774514359434,1.1779473,-0.4165911,7.1059904,0.8197812,-0.10262536,-0.23335053,-1.4399999,14.58,-38.7
1774514359455,1.7238252,-0.22026655,6.435614,0.6927212,-0.32986724,-0.2761111,-1.02,14.88,-38.7
1774514359474,2.0254946,-0.1388637,6.7851677,0.29810223,-0.37384954,-0.2968805,-0.9,14.5199995,-38.579998
1774514359495,1.8483237,-0.56982,8.00621,-0.39095375,-0.1160644,-0.29810223,-0.78,13.92,-39.3
1774514359515,0.8858546,-1.2449849,10.041282,-0.9309586,0.26389378,-0.30298916,-0.78,13.38,-39.48
1774514359535,-0.2873042,-1.2976574,11.736377,-1.0763446,0.66828656,-0.23823744,-1.0799999,12.84,-39.719997
1774514359555,-0.8714894,-1.0055647,11.688493,-0.6426302,0.8026769,-0.14538592,-1.38,13.259999,-40.02
1774514359575,-0.9528923,-0.48362875,10.127473,-0.073303826,0.5742133,-0.073303826,-1.74,13.62,-39.96
1774514359595,-0.9911995,0.23463176,8.48984,0.2003638,0.17837265,-0.057421334,-1.1999999,14.759999,-39.84
1774514359615,-0.79966336,0.5315128,8.063671,0.09407325,-0.10751228,-0.07941248,-0.53999996,15.96,-39.54
1774514359635,-0.45010993,0.61291564,8.700529,-0.12339478,-0.1441642,-0.07574729,-0.17999999,16.26,-39.48
1774514359655,-0.19632454,0.6464345,9.255983,-0.10995574,-0.057421334,-0.039095376,0.17999999,16.26,-39.54
1774514359675,0.05746084,0.5506664,8.978256,-0.0036651916,0.015882496,0.0036651916,-0.17999999,15.78,-39.48
1774514359695,0.2681506,0.4165911,8.791509,-0.035430185,0.021991149,0.02443461,-0.65999997,15.179999,-39.6
1774514359716,0.272939,0.110133275,9.260772,-0.16493362,0.02687807,0.02443461,-0.71999997,15.059999,-39.0
1774514359735,0.12449849,-0.24420857,9.993398,-0.24556783,0.052534413,0.037873644,-0.24,15.66,-39.0
1774514359756,0.02873042,-0.33997664,10.376471,-0.21624629,0.1160644,0.064751714,-0.24,15.54,-38.879997
1774514359778,-0.023942016,-0.20590134,10.295067,-0.10995574,0.119729586,0.096516706,0.12,15.839999,-38.16
1774514359798,0.076614454,0.076614454,10.127473,-0.007330383,0.047647487,0.12705997,-0.53999996,15.66,-38.399998
1774514359820,0.22505496,0.46447513,9.859323,0.04520403,-0.035430185,0.13927728,-0.84,15.54,-38.219997
1774514359839,0.33039984,0.7230489,9.840169,0.034208454,-0.09773844,0.119729586,-0.71999997,15.78,-38.52
1774514359861,0.4165911,0.8619126,10.237606,-0.030543262,-0.058643065,0.103847094,-0.84,15.48,-38.579998
1774514359882,0.33518824,0.90500826,10.625467,-0.035430185,0.013439035,0.08552113,0.0,16.14,-38.04
1774514359903,0.08619126,0.7469909,10.644621,0.037873644,0.03176499,0.0720821,0.65999997,16.98,-38.579998
1774514359923,-0.14844051,0.521936,10.5680065,0.11728613,-0.037873644,0.09773844,0.59999996,16.74,-38.76
1774514359944,0.0047884034,0.5506664,10.577583,0.14294247,-0.10140363,0.14049901,0.53999996,16.859999,-38.52
1774514359964,0.17717093,0.2681506,10.831368,0.112399206,-0.14049901,0.1563815,0.71999997,16.56,-38.82
1774514359986,0.39743748,-0.32561144,11.310209,0.04153884,-0.11728613,0.17348573,0.29999998,16.02,-38.76
1774514360007,0.59376204,-0.60812724,11.827356,0.028099801,-0.112399206,0.14172074,0.53999996,15.96,-38.94
1774514360028,0.5315128,-1.1971009,11.722012,0.1441642,-0.12950343,0.039095376,0.96,16.32,-39.239998
1774514360048,0.076614454,-2.4181437,11.219229,0.2003638,-0.14660765,-0.073303826,0.42,16.14,-39.18
1774514360070,-0.1436521,-3.0502129,11.180922,0.14172074,-0.15393804,-0.06963864,0.65999997,16.38,-38.879997
1774514360090,-0.033518825,-3.3375173,10.941502,0.5216789,-0.3115413,0.04520403,0.35999998,16.44,-38.52
1774514360110,0.20590134,-3.5625722,10.108319,0.6133087,-0.29810223,0.057421334,-0.29999998,15.719999,-38.64
1774514360130,0.20590134,-3.4093432,8.916007,0.4728097,-0.27977628,0.02687807,-0.35999998,15.719999,-39.0
1774514360151,-0.15322891,-3.466804,8.298303,0.22479841,-0.20769419,0.015882496,-0.24,15.599999,-39.84
1774514360172,-1.0103531,-3.2130187,8.456321,-0.002443461,-0.09040806,0.047647487,-0.78,15.179999,-41.1
1774514360192,-0.9576807,-2.8299465,8.695741,-0.05375614,-0.04886922,0.10262536,-1.0799999,14.94,-41.46
1774514360212,-0.9576807,-2.8299465,8.695741,0.013439035,-0.057421334,0.14294247,-1.3199999,14.28,-41.28
1774514360233,-0.29209262,-1.9632454,8.101978,0.10995574,-0.13805555,0.15027285,-1.74,13.5,-41.1
1774514360254,0.16280572,-1.7621324,7.9343843,0.09773844,-0.2932153,0.12217305,-1.8,12.96,-40.62
1774514360274,0.5363012,-1.5945383,8.408437,-0.040317107,-0.2846632,0.09162979,-1.26,13.32,-40.14
1774514360295,0.7278373,-1.4748282,9.078813,-0.14660765,-0.1685988,0.0720821,-1.4399999,12.96,-40.32
1774514360315,0.4405331,-1.9536686,8.039729,-0.17959438,-0.089186326,0.07941248,-1.9799999,12.66,-40.02
1774514360336,0.37828386,-1.4748282,9.390059,-0.35185838,0.080634214,0.13072516,-2.58,12.36,-39.899998
1774514360357,-0.2633622,-1.8483237,9.835381,-0.48380527,0.25045475,0.10995574,-2.34,13.08,-39.66
1774514360380,-0.31603462,-1.7477672,9.931149,-0.3481932,0.22479841,0.14172074,-1.86,13.74,-39.78
1774514360399,-0.2825158,-1.70946,9.701305,-0.20891592,0.12583824,0.13927728,-1.92,13.5,-39.6
1774514360419,-0.062249243,-1.5179238,9.519346,-0.16371189,0.05375614,0.13561209,-1.62,14.04,-39.42
1774514360440,0.32561144,-1.4269443,9.471462,-0.15149458,-0.019547688,0.096516706,-1.56,13.86,-39.059998
1774514360461,0.6655881,-1.3503298,9.548077,-0.16982053,-0.07086037,0.037873644,-1.26,14.4,-38.76
1774514360482,0.8714894,-1.2689269,10.01734,-0.20769419,-0.035430185,-0.02687807,-1.56,14.88,-38.34
1774514360502,0.79487497,-1.2401965,10.424355,-0.19181168,0.09773844,-0.07941248,-1.4399999,15.299999,-38.28
1774514360523,0.58897364,-1.1061212,10.295067,-0.103847094,0.2321288,-0.10995574,-1.3199999,15.719999,-38.579998
1774514360543,0.30645782,-1.1444284,10.213664,-0.02443461,0.30909783,-0.14660765,-1.86,15.42,-38.219997
1774514360563,0.08619126,-0.90979666,10.108319,0.073303826,0.3115413,-0.16493362,-1.3199999,15.9,-38.579998
1774514360584,0.009576807,-1.0295067,9.787497,0.19914207,0.27122417,-0.17715092,-1.1999999,15.54,-38.52
1774514360604,0.2825158,-1.2880806,9.662998,0.26511553,0.18570304,-0.24312437,-1.26,15.54,-38.219997
1774514360624,0.59855044,-1.0390835,9.165004,0.44348818,0.081855945,-0.30909783,-1.02,15.179999,-38.579998
1774514360644,0.8379706,-0.8379706,7.7907324,0.66828656,-0.07819075,-0.3359759,-1.14,14.28,-38.52
1774514360665,1.1444284,-0.8523358,6.885724,0.6218608,-0.2773328,-0.31398472,-1.26,14.099999,-39.12
1774514360684,1.3599066,-0.7757214,7.1347213,0.21502456,-0.31887165,-0.26511553,-1.26,13.679999,-39.48
1774514360705,1.1923125,-1.1444284,7.824251,-0.34208453,-0.13683382,-0.22479841,-1.0799999,13.679999,-39.48
1774514360726,0.56982,-1.6280571,9.701305,-0.93828905,0.14905111,-0.17104226,-0.84,13.98,-39.48
1774514360746,-0.20590134,-1.532289,11.674128,-1.1948525,0.4728097,-0.10873401,-0.84,14.5199995,-39.54
1774514360765,-0.6607997,-1.0869676,12.344504,-0.87109387,0.5888741,-0.05497787,-0.78,14.759999,-39.18
1774514360786,-0.7038953,-0.61291564,11.166556,-0.30298916,0.49846604,-0.02076942,-0.96,15.719999,-39.059998
1774514360808,-0.50278234,0.009576807,9.471462,0.019547688,0.26267207,-0.035430185,-0.96,16.26,-38.399998
1774514360828,-0.33039984,0.2873042,8.643068,0.0036651916,0.014660766,-0.0842994,-0.96,16.199999,-37.98
1774514360850,-0.12449849,0.46447513,8.805874,-0.172264,-0.02076942,-0.056199603,-0.65999997,16.859999,-37.98
1774514360869,0.16280572,0.4309563,9.32781,-0.05375614,0.057421334,-0.014660766,-0.65999997,16.619999,-37.739998
1774514360890,0.17717093,0.17238252,9.270349,-0.032986723,0.04520403,0.004886922,-0.96,16.38,-37.98
1774514360910,0.17238252,-0.23463176,8.968679,-0.1001819,0.014660766,0.008552114,-0.9,16.74,-38.1
1774514360930,0.17717093,-0.5410896,9.165004,-0.11484267,0.009773844,0.02076942,-0.65999997,16.44,-37.86
1774514360951,0.16759412,-0.78529817,9.490616,-0.04886922,0.04642576,0.05497787,-0.48,16.26,-37.92
1774514360971,0.22505496,-0.770933,9.576807,0.014660766,0.007330383,0.07574729,0.0,16.68,-38.1
1774514360991,0.07182605,-0.6847417,9.198523,0.047647487,-0.06719518,0.12217305,0.17999999,16.44,-37.86
1774514361012,0.01436521,-0.48841715,8.896853,0.002443461,-0.09896017,0.16126843,-0.06,16.859999,-38.16
1774514361033,0.07182605,-0.17238252,8.834604,-0.062308256,-0.096516706,0.17837265,-0.29999998,16.619999,-37.98
1774514361053,0.34476504,0.33997664,9.557653,-0.13805555,-0.08307768,0.18448131,-0.48,16.619999,-37.98
1774514361073,0.30645782,0.50278234,10.156203,-0.20158553,-0.057421334,0.16982053,-0.53999996,16.98,-38.34
1774514361093,0.30645782,0.50278234,10.156203,-0.19914207,-0.002443461,0.15882497,-1.1999999,16.02,-38.399998
1774514361113,0.090979666,0.39264908,11.056423,-0.13683382,0.029321533,0.1563815,-1.1999999,16.38,-38.879997
1774514361134,0.090979666,0.39264908,11.056423,-0.07086037,0.040317107,0.17715092,-0.78,16.619999,-38.879997
1774514361154,0.32561144,0.20590134,10.951078,-0.05375614,-0.029321533,0.19058995,-0.59999996,16.92,-38.579998
1774514361174,0.58418524,-0.5650316,11.405977,-0.13439035,-0.10629055,0.16126843,0.0,17.88,-38.219997
1774514361194,0.90979666,-1.2018893,12.148179,-0.18325958,-0.12461651,0.103847094,0.59999996,18.3,-37.8
1774514361216,0.8810662,-1.6089035,12.272678,-0.06719518,-0.034208454,0.018325957,0.29999998,18.0,-37.559998
1774514361236,0.4357447,-2.1883004,11.343728,0.07819075,0.081855945,-0.028099801,0.24,17.58,-37.62
