ts,ax,ay,az,gx,gy,gz,mx,my,mz
1782299685826,0.591027,0.969093,9.546069,-0.028987,0.0769,0.009635,-20.8125,-8.512501,-45.900002
1782299685830,0.591027,0.969093,9.546069,-0.028987,0.0769,0.009635,-20.587502,-7.5,-44.831253
1782299685833,0.497707,1.064806,9.596319,-0.052199,0.11233,0.015744,-20.587502,-7.5,-44.831253
1782299685839,0.497707,1.064806,9.596319,-0.052199,0.11233,0.015744,-21.206251,-8.53125,-43.331253
1782299685842,0.457029,1.091127,9.641782,-0.068693,0.136153,0.023685,-21.206251,-8.53125,-43.331253
1782299685848,0.457029,1.091127,9.641782,-0.068693,0.136153,0.023685,-19.106251,-7.96875,-43.012501
1782299685851,0.385244,1.088734,9.694424,-0.080299,0.125769,0.024907,-19.106251,-7.96875,-43.012501
1782299685866,0.363709,1.069592,9.761423,-0.08763,0.102556,0.02735,-19.650002,-8.83125,-44.550003
1782299685869,0.291924,1.07677,9.778173,-0.093127,0.062239,0.029183,-20.681252,-8.0625,-45.75
1782299685877,0.241675,1.205983,9.816458,-0.083354,0.029863,0.0414,-20.681252,-8.0625,-45.75
1782299685878,0.241675,1.205983,9.816458,-0.083354,0.029863,0.0414,-20.587502,-7.93125,-44.381252
1782299685887,0.246461,1.196411,9.878671,-0.054643,0.023754,0.058504,-20.587502,-7.93125,-44.381252
1782299685890,0.246461,1.196411,9.878671,-0.054643,0.023754,0.058504,-19.800001,-8.231251,-45.150002
1782299685893,0.208176,1.167697,9.8691,-0.016158,0.03475,0.074998,-19.800001,-8.231251,-45.150002
1782299685899,0.208176,1.167697,9.8691,-0.016158,0.03475,0.074998,-20.118752,-7.93125,-44.831253
1782299685902,0.181855,1.194018,9.732709,0.011331,0.057352,0.09088,-20.118752,-7.93125,-44.831253
1782299685908,0.181855,1.194018,9.732709,0.011331,0.057352,0.09088,-22.706251,-7.9125,-44.381252
1782299685910,0.155533,1.227518,9.598712,0.021104,0.072013,0.106152,-22.706251,-7.9125,-44.381252
1782299685919,0.098106,1.275374,9.550854,0.011331,0.062239,0.118369,-20.25,-8.08125,-45.0
1782299685929,0.098106,1.275374,9.550854,-0.008828,0.046356,0.130586,-20.71875,-8.38125,-44.231251
1782299685930,0.107677,1.318445,9.543676,-0.008828,0.046356,0.130586,-20.71875,-8.38125,-44.231251
1782299685937,0.09332,1.323231,9.517355,-0.03815,0.029863,0.140971,-20.71875,-8.38125,-44.231251
1782299685938,0.09332,1.323231,9.517355,-0.03815,0.029863,0.140971,-20.2875,-8.83125,-43.181252
1782299685945,0.086142,1.277767,9.517355,-0.074801,0.00665,0.150134,-20.2875,-8.83125,-43.181252
1782299685949,0.086142,1.277767,9.517355,-0.074801,0.00665,0.150134,-20.550001,-8.231251,-44.850002
1782299685954,0.069392,1.20359,9.603497,-0.113286,-0.017784,0.159908,-20.550001,-8.231251,-44.850002
1782299685972,0.047856,1.067199,9.96242,-0.135277,-0.045884,0.17579,-18.731251,-7.2375,-41.493752
1782299685979,0.045464,1.009771,10.046169,-0.101679,-0.039776,0.178234,-18.731251,-7.2375,-41.493752
1782299685980,0.045464,1.009771,10.046169,-0.101679,-0.039776,0.178234,-19.856251,-8.55,-43.03125
1782299685989,0.050249,0.959522,10.005491,-0.057086,-0.029391,0.175179,-20.587502,-7.5,-44.831253
1782299685997,0.066999,0.918844,9.919349,-0.01738,-0.026337,0.167849,-20.587502,-7.5,-44.831253
1782299685998,0.066999,0.918844,9.919349,-0.01738,-0.026337,0.167849,-20.306252,-6.9,-44.53125
1782299686006,0.064606,0.885344,9.883457,0.006444,-0.036721,0.158686,-20.306252,-6.9,-44.53125
1782299686012,0.064606,0.885344,9.883457,0.006444,-0.036721,0.158686,-21.056252,-7.63125,-44.231251
1782299686014,0.064606,0.885344,9.883457,0.018661,-0.054436,0.144636,-21.056252,-7.63125,-44.231251
1782299686015,0.052642,0.87338,9.9361,0.018661,-0.054436,0.144636,-21.056252,-7.63125,-44.231251
1782299686019,0.052642,0.87338,9.9361,0.018661,-0.054436,0.144636,-19.893751,-6.76875,-43.612503
1782299686023,0.050249,0.851845,9.969598,0.023548,-0.07093,0.133641,-19.893751,-6.76875,-43.612503
1782299686030,0.050249,0.851845,9.969598,0.023548,-0.07093,0.133641,-20.925001,-8.53125,-42.5625
1782299686031,0.050249,0.851845,9.969598,0.029656,-0.094753,0.123867,-20.925001,-8.53125,-42.5625
1782299686032,0.01675,0.839881,9.950456,0.029656,-0.094753,0.123867,-20.925001,-8.53125,-42.5625
1782299686039,0.01675,0.839881,9.950456,0.043706,-0.126518,0.120202,-20.925001,-8.53125,-42.5625
1782299686040,0.009571,0.868595,9.900207,0.043706,-0.126518,0.120202,-20.925001,-6.75,-44.0625
1782299686049,0.035892,0.926022,9.866707,0.071195,-0.152175,0.123256,-20.75625,-7.35,-44.231251
1782299686056,0.035892,0.926022,9.866707,0.113345,-0.154618,0.128143,-20.75625,-7.35,-44.231251
1782299686057,0.122034,1.069592,9.830815,0.113345,-0.154618,0.128143,-20.75625,-7.35,-44.231251
1782299686059,0.122034,1.069592,9.830815,0.113345,-0.154618,0.128143,-20.625,-7.5,-43.3125
1782299686065,0.131605,1.251446,9.713566,0.163436,-0.128351,0.13303,-20.625,-7.5,-43.3125
1782299686069,0.131605,1.251446,9.713566,0.163436,-0.128351,0.13303,-19.987501,-8.1,-43.931252
1782299686073,0.131605,1.251446,9.713566,0.206807,-0.077038,0.138527,-19.987501,-8.1,-43.931252
1782299686074,0.083749,1.416551,9.44557,0.206807,-0.077038,0.138527,-19.987501,-8.1,-43.931252
1782299686079,0.083749,1.416551,9.44557,0.206807,-0.077038,0.138527,-20.868752,-7.48125,-45.131252
1782299686082,-0.009571,1.545763,9.191931,0.227577,-0.016563,0.144025,-20.868752,-7.48125,-45.131252
1782299686088,-0.009571,1.545763,9.191931,0.227577,-0.016563,0.144025,-19.706251,-7.36875,-44.231251
1782299686091,-0.09332,1.648655,9.036397,0.21597,0.038415,0.148301,-19.706251,-7.36875,-44.231251
1782299686100,-0.09332,1.648655,9.036397,0.176264,0.070791,0.150745,-19.706251,-7.36875,-44.231251
1782299686103,-0.18664,1.694118,9.036397,0.176264,0.070791,0.150745,-21.018751,-8.8125,-44.25
1782299686113,-0.301496,1.674976,9.170396,0.116399,0.075678,0.152577,-21.4125,-10.575001,-44.25
1782299686117,-0.380459,1.622334,9.404892,0.047372,0.053687,0.153188,-21.4125,-10.575001,-44.25
1782299686121,-0.380459,1.622334,9.404892,0.047372,0.053687,0.153188,-20.925001,-8.53125,-42.5625
1782299686126,-0.457029,1.521835,9.68246,-0.016769,0.023143,0.155632,-20.925001,-8.53125,-42.5625
1782299686130,-0.457029,1.521835,9.68246,-0.016769,0.023143,0.155632,-22.40625,-8.512501,-43.631252
1782299686135,-0.471386,1.414158,9.931313,-0.069915,-0.011676,0.158686,-22.40625,-8.512501,-43.631252
1782299686139,-0.471386,1.414158,9.931313,-0.069915,-0.011676,0.158686,-19.668751,-8.1,-44.53125
1782299686144,-0.435494,1.342373,10.062919,-0.109621,-0.037332,0.167238,-19.668751,-8.1,-44.53125
1782299686149,-0.435494,1.342373,10.062919,-0.109621,-0.037332,0.167238,-20.081251,-6.6375,-42.693752
1782299686153,-0.387637,1.275374,10.153846,-0.138942,-0.051993,0.176401,-20.081251,-6.6375,-42.693752
1782299686162,-0.332602,1.251446,10.18256,-0.154214,-0.059323,0.188618,-20.081251,-6.6375,-42.693752
1782299686163,-0.332602,1.251446,10.18256,-0.154214,-0.059323,0.188618,-20.887501,-8.231251,-44.081253
1782299686181,-0.291924,1.227518,10.146668,-0.157268,-0.044052,0.209999,-22.556252,-7.6125,-44.231251
1782299686182,-0.236889,1.210768,10.022241,-0.157268,-0.044052,0.209999,-20.043751,-6.91875,-43.462502
1782299686186,-0.234497,1.18684,9.895422,-0.155436,-0.037332,0.214275,-20.043751,-6.91875,-43.462502
1782299686188,-0.234497,1.18684,9.895422,-0.155436,-0.037332,0.214275,-22.387501,-8.212501,-44.081253
1782299686194,-0.20339,1.198804,9.778173,-0.163988,-0.039165,0.217329,-22.387501,-8.212501,-44.081253
1782299686199,-0.20339,1.198804,9.778173,-0.163988,-0.039165,0.217329,-21.956251,-6.73125,-45.131252
1782299686202,-0.20339,1.198804,9.778173,-0.17987,-0.057491,0.214886,-21.956251,-6.73125,-45.131252
1782299686203,-0.143569,1.239482,9.768602,-0.17987,-0.057491,0.214886,-21.956251,-6.73125,-45.131252
1782299686209,-0.143569,1.239482,9.768602,-0.17987,-0.057491,0.214886,-21.1875,-6.75,-45.581253
1782299686211,-0.133998,1.330409,9.849958,-0.185979,-0.09903,0.202668,-21.1875,-6.75,-45.581253
1782299686220,-0.150748,1.478764,9.904993,-0.170707,-0.149731,0.183121,-22.59375,-6.58125,-43.912502
1782299686230,-0.138784,1.598405,9.830815,-0.134055,-0.196157,0.159297,-21.806252,-8.08125,-43.931252
1782299686237,-0.069392,1.701297,9.608283,-0.08824,-0.224257,0.134251,-21.806252,-8.08125,-43.931252
1782299686241,-0.069392,1.701297,9.608283,-0.08824,-0.224257,0.134251,-21.581251,-6.61875,-42.693752
1782299686245,0.035892,1.799403,9.318751,-0.047313,-0.234031,0.107984,-21.581251,-6.61875,-42.693752
1782299686248,0.035892,1.799403,9.318751,-0.047313,-0.234031,0.107984,-21.65625,-8.53125,-43.03125
1782299686254,0.090927,1.902294,9.029219,-0.014937,-0.236474,0.081717,-21.65625,-8.53125,-43.03125
1782299686260,0.090927,1.902294,9.029219,-0.014937,-0.236474,0.081717,-22.78125,-5.7,-44.0625
1782299686262,0.090927,1.902294,9.029219,0.005222,-0.221813,0.058504,-22.78125,-5.7,-44.0625
1782299686263,0.114855,2.0004,8.804294,0.005222,-0.221813,0.058504,-22.78125,-5.7,-44.0625
1782299686276,0.141177,2.06022,8.639189,0.011331,-0.182107,0.042622,-23.15625,-7.1625,-44.831253
1782299686280,0.217747,2.108077,8.58894,0.009498,-0.118577,0.029794,-22.462502,-7.48125,-42.5625
1782299686290,0.265603,2.148755,8.703796,0.001557,-0.042219,0.019409,-22.012501,-7.2,-43.012501
1782299686297,0.282353,2.148755,8.91915,0.001557,0.035361,0.012689,-22.012501,-7.2,-43.012501
1782299686298,0.282353,2.148755,8.91915,0.001557,0.035361,0.012689,-22.518751,-5.71875,-42.543751
1782299686306,0.294317,2.103291,9.158432,0.01072,0.104388,0.010246,-22.518751,-5.71875,-42.543751
1782299686317,0.253639,2.036292,9.390536,0.025991,0.158145,0.009024,-22.612501,-7.63125,-42.412502
1782299686319,0.253639,2.036292,9.390536,0.025991,0.158145,0.009024,-22.275002,-7.33125,-44.231251
1782299686322,0.236889,1.976472,9.63221,0.052869,0.187466,0.012078,-22.275002,-7.33125,-44.231251
1782299686328,0.236889,1.976472,9.63221,0.052869,0.187466,0.012078,-22.575001,-6.88125,-44.231251
1782299686331,0.172283,1.897508,9.854744,0.083413,0.203959,0.018187,-22.575001,-6.88125,-44.231251
1782299686339,0.172283,1.897508,9.854744,0.113345,0.205181,0.026739,-22.725,-5.98125,-45.581253
1782299686340,0.112463,1.840081,10.000705,0.113345,0.205181,0.026739,-22.725,-5.98125,-45.581253
1782299686350,0.112463,1.840081,10.000705,0.13778,0.197851,0.03468,-22.725,-5.98125,-45.581253
1782299686351,0.078963,1.761117,10.046169,0.13778,0.197851,0.03468,-22.668751,-6.3,-42.393753
1782299686357,0.045464,1.756332,10.036598,0.149997,0.177081,0.043233,-22.668751,-6.3,-42.393753
1782299686359,0.045464,1.756332,10.036598,0.149997,0.177081,0.043233,-22.518751,-6.46875,-41.793751
1782299686365,0.045464,1.756332,10.036598,0.151219,0.140429,0.050563,-22.518751,-6.46875,-41.793751
1782299686366,-0.014357,1.744368,9.988741,0.151219,0.140429,0.050563,-22.518751,-6.46875,-41.793751
1782299686380,-0.009571,1.715654,9.900207,0.139612,0.104388,0.054839,-21.806252,-6.58125,-44.981251
1782299686383,-0.043071,1.696511,9.842779,0.120675,0.070791,0.056061,-21.806252,-6.58125,-44.981251
1782299686389,-0.043071,1.696511,9.842779,0.120675,0.070791,0.056061,-22.44375,-6.0,-44.8125
1782299686391,-0.035892,1.691726,9.80928,0.097462,0.040859,0.054228,-22.44375,-6.0,-44.8125
1782299686399,-0.035892,1.691726,9.80928,0.097462,0.040859,0.054228,-22.5375,-6.01875,-41.793751
1782299686400,-0.047856,1.696511,9.732709,0.079136,0.012148,0.048119,-22.5375,-6.01875,-41.793751
1782299686410,-0.078963,1.710868,9.720745,0.077304,-0.009232,0.036513,-22.462502,-6.45,-43.612503
1782299686417,-0.119641,1.761117,9.727924,0.095019,-0.025726,0.019409,-22.462502,-6.45,-43.612503
1782299686418,-0.119641,1.761117,9.727924,0.095019,-0.025726,0.019409,-21.825001,-8.08125,-43.162502
1782299686425,-0.133998,1.844866,9.620246,0.126173,-0.02145,-0.001361,-21.825001,-8.08125,-43.162502
1782299686428,-0.133998,1.844866,9.620246,0.126173,-0.02145,-0.001361,-22.40625,-7.18125,-44.831253
1782299686435,-0.153141,1.919044,9.416856,0.15916,-0.009232,-0.025795,-22.40625,-7.18125,-44.831253
1782299686440,-0.153141,1.919044,9.416856,0.15916,-0.009232,-0.025795,-22.44375,-7.48125,-43.3125
1782299686443,-0.145962,1.9669,9.211073,0.179318,0.004207,-0.05023,-22.44375,-7.48125,-43.3125
1782299686449,-0.145962,1.9669,9.211073,0.179318,0.004207,-0.05023,-22.44375,-7.48125,-43.3125
1782299686451,-0.145962,1.9669,9.211073,0.179318,0.019478,-0.074053,-22.44375,-7.48125,-43.3125
1782299686452,-0.12682,2.017149,9.053148,0.179318,0.019478,-0.074053,-22.44375,-7.48125,-43.3125
1782299686460,-0.12682,2.017149,9.053148,0.179318,0.019478,-0.074053,-22.743752,-7.9125,-43.012501
1782299686461,-0.098106,2.021935,9.036397,0.160992,0.029863,-0.096045,-22.743752,-7.9125,-43.012501
1782299686470,-0.064606,1.981257,9.129718,0.128617,0.037193,-0.116814,-23.15625,-7.9125,-44.081253
1782299686486,-0.083749,1.861616,9.634603,0.072417,0.046356,-0.151022,-23.15625,-7.9125,-44.081253
1782299686488,-0.083749,1.861616,9.634603,0.072417,0.046356,-0.151022,-22.856251,-8.3625,-43.931252
1782299686494,-0.069392,1.785046,9.97917,0.079136,0.064071,-0.159575,-22.856251,-8.3625,-43.931252
1782299686499,-0.069392,1.785046,9.97917,0.079136,0.064071,-0.159575,-21.862501,-7.35,-42.712502
1782299686503,-0.014357,1.713261,10.295023,0.11701,0.101945,-0.160796,-21.862501,-7.35,-42.712502
1782299686509,-0.014357,1.713261,10.295023,0.11701,0.101945,-0.160796,-21.168751,-7.93125,-44.831253
1782299686512,-0.014357,1.713261,10.295023,0.181762,0.138597,-0.160796,-21.168751,-7.93125,-44.831253
1782299686513,0.035892,1.641476,10.450556,0.181762,0.138597,-0.160796,-21.168751,-7.93125,-44.831253
1782299686519,0.035892,1.641476,10.450556,0.181762,0.138597,-0.160796,-21.993752,-8.231251,-42.5625
1782299686520,0.059821,1.581656,10.548662,0.25812,0.170362,-0.16324,-21.993752,-8.231251,-42.5625
1782299686529,0.059821,1.581656,10.548662,0.322261,0.197851,-0.163851,-21.993752,-8.231251,-42.5625
1782299686530,0.086142,1.596013,10.543876,0.322261,0.197851,-0.163851,-21.543751,-8.08125,-42.712502
1782299686538,0.129212,1.65344,10.539091,0.360745,0.213122,-0.162018,-21.543751,-8.08125,-42.712502
1782299686539,0.129212,1.65344,10.539091,0.360745,0.213122,-0.162018,-23.981251,-7.4625,-42.5625
1782299686546,0.172283,1.713261,10.541483,0.371741,0.208235,-0.157131,-23.981251,-7.4625,-42.5625
1782299686549,0.172283,1.713261,10.541483,0.371741,0.208235,-0.157131,-22.25625,-8.8125,-43.181252
1782299686554,0.172283,1.713261,10.541483,0.36441,0.193575,-0.148579,-22.25625,-8.8125,-43.181252
1782299686555,0.205783,1.732404,10.570198,0.36441,0.193575,-0.148579,-22.25625,-8.8125,-43.181252
1782299686559,0.205783,1.732404,10.570198,0.36441,0.193575,-0.148579,-21.28125,-8.25,-41.043751
1782299686563,0.162712,1.739582,10.57259,0.343641,0.186855,-0.136362,-21.28125,-8.25,-41.043751
1782299686568,0.162712,1.739582,10.57259,0.343641,0.186855,-0.136362,-22.893751,-8.3625,-42.712502
1782299686571,0.028714,1.667797,10.685052,0.324704,0.175249,-0.124144,-22.893751,-8.3625,-42.712502
1782299686584,-0.050249,1.588834,10.780765,0.314319,0.153258,-0.114981,-22.25625,-7.63125,-44.231251
1782299686590,-0.088534,1.533799,10.838193,0.313709,0.111108,-0.113149,-22.893751,-8.8125,-42.412502
1782299686597,-0.035892,1.543371,10.845372,0.319817,0.068958,-0.116203,-22.893751,-8.8125,-42.412502
1782299686598,-0.035892,1.543371,10.845372,0.319817,0.068958,-0.116203,-20.85,-9.262501,-44.100002
1782299686606,-0.035892,1.543371,10.845372,0.324704,0.031085,-0.12781,-20.85,-9.262501,-44.100002
1782299686607,0.002393,1.562513,10.735302,0.324704,0.031085,-0.12781,-20.85,-9.262501,-44.100002
1782299686610,0.002393,1.562513,10.735302,0.324704,0.031085,-0.12781,-22.706251,-9.243751,-42.581253
1782299686615,-0.028714,1.648655,10.567804,0.313709,-6.9e-05,-0.143081,-22.706251,-9.243751,-42.581253
1782299686620,-0.028714,1.648655,10.567804,0.313709,-6.9e-05,-0.143081,-22.237501,-10.875,-41.681252
1782299686623,-0.031107,1.770689,10.38595,0.280722,-0.020228,-0.159575,-22.237501,-10.875,-41.681252
1782299686629,-0.031107,1.770689,10.38595,0.280722,-0.020228,-0.159575,-21.7875,-10.14375,-42.431252
1782299686632,-0.055035,1.804188,10.192132,0.225744,-0.034278,-0.173014,-21.7875,-10.14375,-42.431252
1782299686639,-0.055035,1.804188,10.192132,0.225744,-0.034278,-0.173014,-22.556252,-10.14375,-42.131252
1782299686641,-0.066999,1.768296,10.065312,0.15916,-0.041608,-0.182787,-22.556252,-10.14375,-42.131252
1782299686650,-0.066999,1.768296,10.065312,0.088299,-0.022061,-0.195616,-22.556252,-10.14375,-42.131252
1782299686651,-0.143569,1.694118,10.084454,0.088299,-0.022061,-0.195616,-21.768751,-10.59375,-42.75
1782299686657,-0.143569,1.694118,10.084454,0.016828,0.021922,-0.214552,-21.768751,-10.59375,-42.75
1782299686658,-0.18664,1.572084,10.218452,0.016828,0.021922,-0.214552,-21.768751,-10.59375,-42.75
1782299686659,-0.18664,1.572084,10.218452,0.016828,0.021922,-0.214552,-21.712502,-10.575001,-44.25
1782299686666,-0.265603,1.440479,10.383557,-0.054032,0.06285,-0.238987,-21.712502,-10.575001,-44.25
1782299686669,-0.265603,1.440479,10.383557,-0.054032,0.06285,-0.238987,-21.13125,-10.293751,-43.650002
1782299686674,-0.265603,1.440479,10.383557,-0.124892,0.085452,-0.265254,-21.13125,-10.293751,-43.650002
1782299686675,-0.270389,1.387837,10.517555,-0.124892,0.085452,-0.265254,-21.13125,-10.293751,-43.650002
1782299686690,-0.244068,1.306481,10.644374,-0.192698,0.093393,-0.289078,-21.168751,-9.993751,-43.03125
1782299686692,-0.208176,1.131805,10.713767,-0.259893,0.101945,-0.30435,-21.168751,-9.993751,-43.03125
1782299686698,-0.208176,1.131805,10.713767,-0.259893,0.101945,-0.30435,-22.837502,-9.84375,-42.731251
1782299686700,-0.150748,0.897308,10.723338,-0.325256,0.114773,-0.306793,-22.837502,-9.84375,-42.731251
1782299686710,-0.150748,0.897308,10.723338,-0.383899,0.134321,-0.293965,-22.837502,-9.84375,-42.731251
1782299686711,-0.064606,0.59342,10.771194,-0.383899,0.134321,-0.293965,-21.88125,-10.725,-43.350002
1782299686718,0.083749,0.272782,11.029619,-0.423605,0.158145,-0.273806,-21.88125,-10.725,-43.350002
1782299686719,0.083749,0.272782,11.029619,-0.423605,0.158145,-0.273806,-23.137501,-8.493751,-44.381252
1782299686726,0.16989,0.01675,11.402899,-0.429714,0.163642,-0.253648,-23.137501,-8.493751,-44.381252
1782299686729,0.16989,0.01675,11.402899,-0.429714,0.163642,-0.253648,-19.706251,-8.85,-42.412502
1782299686735,0.145962,-0.155533,11.706788,-0.388786,0.134321,-0.236544,-19.706251,-8.85,-42.412502
1782299686740,0.145962,-0.155533,11.706788,-0.388786,0.134321,-0.236544,-21.768751,-10.59375,-42.75
1782299686744,0.028714,-0.174676,11.838393,-0.294102,0.08423,-0.220661,-21.768751,-10.59375,-42.75
1782299686749,0.028714,-0.174676,11.838393,-0.294102,0.08423,-0.220661,-21.4125,-10.125,-44.550003
1782299686753,-0.021535,-0.064606,11.678074,-0.145662,0.048189,-0.207222,-21.4125,-10.125,-44.550003
1782299686759,-0.021535,-0.064606,11.678074,-0.145662,0.048189,-0.207222,-21.50625,-8.83125,-42.731251
1782299686762,-0.057428,0.090927,11.180367,0.0321,0.030474,-0.19867,-21.50625,-8.83125,-42.731251
1782299686770,-0.052642,0.318245,10.42902,0.18787,0.010315,-0.192561,-21.168751,-9.262501,-43.631252
1782299686778,-0.038285,0.569492,9.68246,0.288663,-0.016563,-0.187674,-21.168751,-9.262501,-43.631252
1782299686779,-0.038285,0.569492,9.68246,0.288663,-0.016563,-0.187674,-22.725,-8.512501,-43.03125
1782299686798,-0.019143,1.028914,8.565012,0.288663,-0.089256,-0.17729,-20.831251,-9.69375,-44.400002
1782299686800,-0.019143,1.028914,8.565012,0.288663,-0.089256,-0.17729,-22.556252,-10.59375,-41.681252
1782299686807,0.031107,1.174876,8.366408,0.222079,-0.122242,-0.173014,-22.556252,-10.59375,-41.681252
1782299686809,0.031107,1.174876,8.366408,0.222079,-0.122242,-0.173014,-22.462502,-10.856251,-44.268753
1782299686812,0.021535,1.275374,8.390336,0.146332,-0.12774,-0.166905,-22.462502,-10.856251,-44.268753
1782299686819,0.021535,1.275374,8.390336,0.146332,-0.12774,-0.166905,-21.731251,-9.84375,-44.25
1782299686821,0.138784,1.342373,8.498013,0.084023,-0.110025,-0.160185,-21.731251,-9.84375,-44.25
1782299686829,0.028714,1.299303,8.612868,0.036987,-0.083147,-0.154688,-21.13125,-9.69375,-44.100002
1782299686837,-0.045464,1.323231,8.493228,0.001557,-0.047106,-0.13514,-21.13125,-9.69375,-44.100002
1782299686838,-0.045464,1.323231,8.493228,0.001557,-0.047106,-0.13514,-21.450001,-10.89375,-42.75
1782299686846,0.114855,1.249053,8.51237,-0.032652,-0.022061,-0.122923,-21.450001,-10.89375,-42.75
1782299686848,0.114855,1.249053,8.51237,-0.032652,-0.022061,-0.122923,-21.431252,-9.84375,-44.550003
1782299686855,0.150748,1.158126,8.598511,-0.065638,0.007872,-0.118647,-21.431252,-9.84375,-44.550003
1782299686860,0.150748,1.158126,8.598511,-0.065638,0.007872,-0.118647,-21.9375,-9.262501,-43.03125
1782299686863,0.141177,1.095913,8.655939,-0.08091,0.024365,-0.111316,-21.9375,-9.262501,-43.03125
1782299686869,0.141177,1.095913,8.655939,-0.08091,0.024365,-0.111316,-22.78125,-10.125,-44.25
1782299686872,0.177069,1.01695,8.60569,-0.089462,0.040248,-0.105818,-22.78125,-10.125,-44.25
1782299686878,0.177069,1.01695,8.60569,-0.089462,0.040248,-0.105818,-21.918751,-9.993751,-43.350002
1782299686880,0.20339,0.940379,8.632011,-0.10901,0.054908,-0.105208,-21.918751,-9.993751,-43.350002
1782299686898,0.184247,0.775275,9.026826,-0.170096,0.050021,-0.121701,-22.200001,-10.125,-43.5
1782299686899,0.184247,0.775275,9.026826,-0.170096,0.050021,-0.121701,-21.5625,-10.725,-44.100002
1782299686906,0.205783,0.725025,9.256538,-0.20125,0.035972,-0.132086,-21.5625,-10.725,-44.100002
1782299686909,0.205783,0.725025,9.256538,-0.20125,0.035972,-0.132086,-21.5625,-10.725,-44.100002
1782299686915,0.172283,0.689133,9.404892,-0.228739,0.015813,-0.137583,-21.5625,-10.725,-44.100002
1782299686920,0.172283,0.689133,9.404892,-0.228739,0.015813,-0.137583,-23.118752,-8.19375,-44.850002
1782299686924,0.122034,0.701097,9.514963,-0.248287,-0.004345,-0.133307,-23.118752,-8.19375,-44.850002
1782299686929,0.122034,0.701097,9.514963,-0.248287,-0.004345,-0.133307,-21.056252,-9.8625,-42.131252
1782299686932,0.102891,0.722632,9.562819,-0.254396,-0.020228,-0.119257,-21.056252,-9.8625,-42.131252
1782299686939,0.102891,0.722632,9.562819,-0.254396,-0.020228,-0.119257,-23.325001,-10.6875,-45.618752
1782299686940,0.102891,0.722632,9.562819,-0.239735,-0.030613,-0.100321,-23.325001,-10.6875,-45.618752
1782299686941,0.114855,0.765703,9.514963,-0.239735,-0.030613,-0.100321,-23.325001,-10.6875,-45.618752
1782299686950,0.114855,0.765703,9.514963,-0.206137,-0.0355,-0.074053,-23.325001,-10.6875,-45.618752
1782299686951,0.141177,0.775275,9.404892,-0.206137,-0.0355,-0.074053,-21.525002,-10.275001,-45.618752
1782299686960,0.141177,0.775275,9.404892,-0.160933,-0.037332,-0.045954,-21.525002,-10.275001,-45.618752
1782299686961,0.098106,0.758525,9.266109,-0.160933,-0.037332,-0.045954,-22.25625,-9.1125,-42.731251
1782299686967,0.136391,0.882952,9.086648,-0.108399,-0.027558,-0.016632,-22.25625,-9.1125,-42.731251
1782299686969,0.136391,0.882952,9.086648,-0.108399,-0.027558,-0.016632,-21.1875,-8.962501,-43.331253
1782299686975,0.07657,0.916451,8.938292,-0.061362,-0.008011,-0.001361,-21.1875,-8.962501,-43.331253
1782299686980,0.07657,0.916451,8.938292,-0.061362,-0.008011,-0.001361,-22.21875,-8.0625,-45.300003
1782299686984,0.07657,0.916451,8.938292,-0.028376,0.021922,0.012689,-22.21875,-8.0625,-45.300003
1782299686985,0.055035,0.959522,8.80908,-0.028376,0.021922,0.012689,-22.21875,-8.0625,-45.300003
1782299686998,0.050249,1.036092,8.751652,-0.015548,0.049411,0.02002,-22.63125,-9.975,-44.400002
1782299686999,0.050249,1.036092,8.751652,-0.015548,0.049411,0.02002,-21.09375,-11.775001,-43.668751
1782299687001,0.028714,1.083949,8.746867,-0.024711,0.071402,0.019409,-21.09375,-11.775001,-43.668751
1782299687010,-0.01675,1.12702,8.777973,-0.054643,0.072013,0.014522,-21.75,-9.39375,-44.25
1782299687020,-0.088534,1.155733,8.88565,-0.091906,0.055519,0.010857,-22.143751,-10.856251,-44.568752
1782299687027,-0.095713,1.162912,9.034005,-0.119395,0.029252,0.004748,-22.143751,-10.856251,-44.568752
1782299687029,-0.095713,1.162912,9.034005,-0.119395,0.029252,0.004748,-22.5375,-8.793751,-43.931252
1782299687036,-0.098106,1.165305,9.196717,-0.129779,-0.00068,-0.004415,-22.5375,-8.793751,-43.931252
1782299687040,-0.098106,1.165305,9.196717,-0.129779,-0.00068,-0.004415,-21.018751,-9.4125,-43.181252
1782299687044,-0.07657,1.201197,9.282858,-0.115119,-0.030002,-0.012356,-21.018751,-9.4125,-43.181252
1782299687049,-0.07657,1.201197,9.282858,-0.115119,-0.030002,-0.012356,-21.918751,-9.69375,-43.331253
1782299687053,-0.011964,1.265803,9.254144,-0.086408,-0.048939,-0.016632,-21.918751,-9.69375,-43.331253
1782299687061,0.038285,1.35673,9.115361,-0.047313,-0.050771,-0.017243,-21.543751,-11.025001,-44.118752
1782299687069,0.038285,1.35673,9.115361,-0.047313,-0.050771,-0.017243,-22.21875,-10.9875,-46.6875
1782299687070,0.062213,1.418944,8.926328,-0.012493,-0.049549,-0.014189,-22.21875,-10.9875,-46.6875
1782299687079,0.011964,1.399801,8.758831,-0.001498,-0.041608,-0.010524,-22.368752,-9.993751,-43.03125
1782299687086,0.050249,1.423729,8.746867,-0.022878,-0.022061,-0.001361,-22.368752,-9.993751,-43.03125
1782299687088,0.050249,1.423729,8.746867,-0.022878,-0.022061,-0.001361,-22.21875,-9.39375,-43.950001
1782299687097,0.009571,1.464407,8.998112,-0.057086,-0.009843,0.010857,-22.21875,-9.39375,-43.950001
1782299687099,0.009571,1.464407,8.998112,-0.057086,-0.009843,0.010857,-22.762501,-9.825001,-45.318752
1782299687103,0.045464,1.4668,9.292429,-0.074191,-0.001902,0.026128,-22.762501,-9.825001,-45.318752
1782299687109,0.045464,1.4668,9.292429,-0.074191,-0.001902,0.026128,-22.612501,-10.70625,-44.100002
1782299687112,-0.09332,1.418944,9.531712,-0.061362,0.009704,0.038346,-22.612501,-10.70625,-44.100002
1782299687119,-0.09332,1.418944,9.531712,-0.061362,0.009704,0.038346,-21.712502,-10.575001,-43.950001
1782299687120,-0.09332,1.418944,9.531712,-0.012493,0.026809,0.052396,-21.712502,-10.575001,-43.950001
1782299687121,-0.09332,1.471586,9.68246,-0.012493,0.026809,0.052396,-21.712502,-10.575001,-43.950001
1782299687130,-0.09332,1.471586,9.68246,0.068752,0.038415,0.062169,-21.768751,-10.14375,-43.200001
1782299687131,-0.119641,1.557728,9.723138,0.068752,0.038415,0.062169,-21.768751,-10.14375,-43.200001
1782299687139,-0.119641,1.557728,9.723138,0.157938,0.035361,0.066445,-21.768751,-10.14375,-43.200001
1782299687140,-0.083749,1.636691,9.567605,0.157938,0.035361,0.066445,-23.0625,-10.25625,-44.868752
1782299687146,-0.083749,1.636691,9.567605,0.225744,0.007872,0.058504,-23.0625,-10.25625,-44.868752
1782299687147,-0.047856,1.65344,9.388143,0.225744,0.007872,0.058504,-23.0625,-10.25625,-44.868752
1782299687148,-0.047856,1.65344,9.388143,0.225744,0.007872,0.058504,-21.806252,-11.00625,-45.618752
1782299687155,-0.047856,1.65344,9.388143,0.247124,-0.034278,0.046287,-21.806252,-11.00625,-45.618752
1782299687156,0.028714,1.677369,9.225431,0.247124,-0.034278,0.046287,-21.806252,-11.00625,-45.618752
1782299687160,0.028714,1.677369,9.225431,0.247124,-0.034278,0.046287,-22.837502,-9.84375,-42.731251
1782299687164,0.028714,1.677369,9.225431,0.234296,-0.088645,0.031015,-22.837502,-9.84375,-42.731251
1782299687165,0.177069,1.756332,9.297216,0.234296,-0.088645,0.031015,-22.837502,-9.84375,-42.731251
1782299687169,0.177069,1.756332,9.297216,0.234296,-0.088645,0.031015,-20.962502,-10.14375,-44.550003
1782299687172,0.177069,1.756332,9.297216,0.211083,-0.139347,0.023074,-20.962502,-10.14375,-44.550003
1782299687173,0.191426,1.801795,9.57239,0.211083,-0.139347,0.023074,-20.962502,-10.14375,-44.550003
1782299687179,0.191426,1.801795,9.57239,0.211083,-0.139347,0.023074,-21.018751,-9.1125,-43.481251
1782299687181,0.287139,1.801795,9.828422,0.193368,-0.173555,0.015744,-21.018751,-9.1125,-43.481251
1782299687190,0.287139,1.801795,9.828422,0.182373,-0.19799,0.017576,-21.018751,-9.1125,-43.481251
1782299687191,0.344566,1.847259,9.926528,0.182373,-0.19799,0.017576,-22.800001,-9.825001,-44.25
1782299687210,0.416351,1.674976,10.117954,0.18054,-0.175998,0.051174,-22.275002,-11.00625,-45.168751
1782299687216,0.385244,1.536192,10.213666,0.169544,-0.121021,0.078052,-22.275002,-11.00625,-45.168751
1782299687220,0.385244,1.536192,10.213666,0.169544,-0.121021,0.078052,-21.88125,-11.025001,-43.050003
1782299687223,0.385244,1.536192,10.213666,0.149386,-0.059323,0.102486,-21.88125,-11.025001,-43.050003
1782299687224,0.418744,1.349552,10.424235,0.149386,-0.059323,0.102486,-21.88125,-11.025001,-43.050003
1782299687229,0.418744,1.349552,10.424235,0.149386,-0.059323,0.102486,-23.38125,-11.00625,-43.350002
1782299687232,0.356531,1.208375,10.878871,0.13839,-0.012898,0.11898,-23.38125,-11.00625,-43.350002
1782299687238,0.356531,1.208375,10.878871,0.13839,-0.012898,0.11898,-23.94375,-10.837501,-45.018753
1782299687240,0.356531,1.208375,10.878871,0.154273,0.012148,0.122034,-23.94375,-10.837501,-45.018753
1782299687241,0.557528,1.004985,11.228223,0.154273,0.012148,0.122034,-23.94375,-10.837501,-45.018753
1782299687250,0.634098,0.792024,11.426828,0.189703,0.010926,0.108595,-21.5625,-11.75625,-43.350002
1782299687259,0.634098,0.792024,11.426828,0.239183,-0.003124,0.082939,-23.325001,-11.7375,-44.418751
1782299687260,0.37328,0.679562,11.505791,0.239183,-0.003124,0.082939,-23.325001,-11.7375,-44.418751
1782299687267,0.351745,0.643669,11.316758,0.276446,0.002985,0.052396,-23.325001,-11.7375,-44.418751
1782299687269,0.351745,0.643669,11.316758,0.276446,0.002985,0.052396,-23.15625,-11.587501,-45.337502
1782299687276,0.397209,0.524028,11.163617,0.291107,-0.025115,0.006581,-23.15625,-11.587501,-45.337502
1782299687280,0.397209,0.524028,11.163617,0.291107,-0.025115,0.006581,-20.71875,-12.4875,-44.887501
1782299687284,0.265603,0.892523,11.199509,0.271559,-0.039165,-0.027017,-20.71875,-12.4875,-44.887501
1782299687289,0.265603,0.892523,11.199509,0.271559,-0.039165,-0.027017,-23.90625,-13.05,-43.987503
1782299687293,0.196211,1.261018,11.14926,0.260563,-0.017174,-0.032515,-23.90625,-13.05,-43.987503
1782299687299,0.196211,1.261018,11.14926,0.260563,-0.017174,-0.032515,-22.96875,-13.500001,-44.4375
1782299687312,0.028714,1.605584,11.017655,0.259342,-0.00068,0.007192,-22.556252,-12.76875,-44.137501
1782299687319,0.028714,1.605584,11.017655,0.284998,-0.026337,0.029183,-22.556252,-12.76875,-44.137501
1782299687320,0.028714,1.706083,10.984155,0.284998,-0.026337,0.029183,-23.775002,-12.76875,-43.668751
1782299687326,0.028714,1.706083,10.984155,0.316763,-0.034278,0.046287,-23.775002,-12.76875,-43.668751
1782299687327,0.055035,1.801795,10.670696,0.316763,-0.034278,0.046287,-23.775002,-12.76875,-43.668751
1782299687328,0.055035,1.801795,10.670696,0.316763,-0.034278,0.046287,-22.143751,-11.306251,-44.268753
1782299687335,0.055035,1.801795,10.670696,0.299659,-0.041608,0.036513,-22.143751,-11.306251,-44.268753
1782299687336,0.162712,1.588834,10.263916,0.299659,-0.041608,0.036513,-22.143751,-11.306251,-44.268753
1782299687340,0.162712,1.588834,10.263916,0.299659,-0.041608,0.036513,-23.6625,-14.212501,-45.65625
1782299687344,-0.299103,1.548156,10.168203,0.19459,-0.005567,0.022463,-23.6625,-14.212501,-45.65625
1782299687349,-0.299103,1.548156,10.168203,0.19459,-0.005567,0.022463,-23.34375,-12.76875,-43.368752
1782299687352,-0.538385,1.605584,10.350057,0.024159,0.046967,0.012689,-23.34375,-12.76875,-43.368752
1782299687359,-0.538385,1.605584,10.350057,0.024159,0.046967,0.012689,-23.737501,-13.500001,-44.137501
1782299687361,-0.476172,1.497907,10.991334,-0.152992,0.053076,0.024296,-23.737501,-13.500001,-44.137501
1782299687370,-0.349352,1.055235,11.584754,-0.275776,0.031696,0.065224,-22.275002,-12.7875,-43.368752
1782299687379,-0.349352,1.055235,11.584754,-0.325256,-0.025726,0.101265,-22.275002,-12.7875,-43.368752
1782299687380,-0.409173,0.413958,12.017855,-0.325256,-0.025726,0.101265,-23.512501,-11.587501,-43.518753
1782299687387,-0.267996,-0.153141,12.144675,-0.298378,-0.086812,0.11226,-23.512501,-11.587501,-43.518753
1782299687388,-0.267996,-0.153141,12.144675,-0.298378,-0.086812,0.11226,-23.512501,-11.587501,-43.518753
1782299687395,-0.267996,-0.153141,12.144675,-0.215911,-0.126518,0.104319,-23.512501,-11.587501,-43.518753
1782299687396,-0.20339,-0.521635,12.010676,-0.215911,-0.126518,0.104319,-23.512501,-11.587501,-43.518753
1782299687398,-0.20339,-0.521635,12.010676,-0.215911,-0.126518,0.104319,-23.456251,-12.618751,-44.287502
1782299687415,-0.117248,-0.361316,11.060726,-0.015548,-0.073984,0.103708,-22.59375,-11.7375,-44.118752
1782299687419,-0.117248,-0.361316,11.060726,-0.015548,-0.073984,0.103708,-21.65625,-12.637501,-44.287502
1782299687421,-0.155533,-0.200997,10.517555,0.069974,-0.033056,0.11226,-21.65625,-12.637501,-44.287502
1782299687429,-0.155533,-0.200997,10.517555,0.130449,-0.00068,0.122645,-22.575001,-12.7875,-43.668751
1782299687430,-0.229711,0.050249,10.041383,0.130449,-0.00068,0.122645,-22.575001,-12.7875,-43.668751
1782299687439,-0.229711,0.050249,10.041383,0.170766,0.014591,0.125699,-22.575001,-12.7875,-43.668751
1782299687440,-0.363709,0.315853,9.711174,0.170766,0.014591,0.125699,-23.71875,-13.931251,-44.4375
1782299687447,-0.457029,0.564706,9.345072,0.197033,0.027419,0.126921,-23.71875,-13.931251,-44.4375
1782299687448,-0.457029,0.564706,9.345072,0.197033,0.027419,0.126921,-22.931252,-13.931251,-45.206253
1782299687455,-0.631705,0.760918,8.964613,0.206196,0.0207,0.112871,-22.931252,-13.931251,-45.206253
1782299687459,-0.631705,0.760918,8.964613,0.206196,0.0207,0.112871,-22.21875,-12.468751,-45.637501
1782299687464,-0.631705,0.760918,8.964613,0.185427,-0.006178,0.096378,-22.21875,-12.468751,-45.637501
1782299687465,-0.792024,0.981057,8.608082,0.185427,-0.006178,0.096378,-22.21875,-12.468751,-45.637501
1782299687469,-0.792024,0.981057,8.608082,0.185427,-0.006178,0.096378,-23.38125,-14.38125,-45.056252
1782299687473,-0.90688,1.210768,8.332908,0.127395,-0.030002,0.085993,-23.38125,-14.38125,-45.056252
1782299687479,-0.90688,1.210768,8.332908,0.127395,-0.030002,0.085993,-24.618752,-13.63125,-45.056252
1782299687481,-1.009771,1.342373,8.225231,0.036376,-0.046495,0.087215,-24.618752,-13.63125,-45.056252
1782299687489,-1.009771,1.342373,8.225231,0.036376,-0.046495,0.087215,-23.2875,-12.468751,-44.887501
1782299687490,-1.134198,1.421337,8.335301,-0.067471,-0.068486,0.103708,-23.2875,-12.468751,-44.887501
1782299687500,-1.134198,1.421337,8.335301,-0.163377,-0.094753,0.139138,-23.2875,-12.468751,-44.887501
1782299687501,-1.256232,1.440479,8.600904,-0.163377,-0.094753,0.139138,-22.987501,-12.468751,-45.1875
1782299687507,-1.256232,1.440479,8.600904,-0.227518,-0.127129,0.191062,-22.987501,-12.468751,-45.1875
1782299687508,-1.287339,1.351945,8.873686,-0.227518,-0.127129,0.191062,-22.987501,-12.468751,-45.1875
1782299687523,-1.033699,1.091127,9.043577,-0.247676,-0.164392,0.241153,-23.00625,-12.76875,-44.137501
1782299687524,-0.782453,0.636491,9.07229,-0.232405,-0.208985,0.26742,-23.00625,-12.76875,-44.137501
1782299687529,-0.782453,0.636491,9.07229,-0.232405,-0.208985,0.26742,-23.75625,-13.500001,-43.6875
1782299687532,-0.782453,0.636491,9.07229,-0.204305,-0.228533,0.265587,-23.75625,-13.500001,-43.6875
1782299687533,-0.555135,0.368495,9.026826,-0.204305,-0.228533,0.265587,-23.75625,-13.500001,-43.6875
1782299687539,-0.555135,0.368495,9.026826,-0.204305,-0.228533,0.265587,-23.793751,-12.468751,-43.668751
1782299687541,-0.555135,0.368495,9.026826,-0.185979,-0.21265,0.250316,-23.793751,-12.468751,-43.668751
1782299687542,-0.382852,0.366102,8.97897,-0.185979,-0.21265,0.250316,-23.793751,-12.468751,-43.668751
1782299687548,-0.382852,0.366102,8.97897,-0.185979,-0.21265,0.250316,-22.668751,-12.618751,-45.337502
1782299687550,-0.289532,0.442672,9.010077,-0.187201,-0.194935,0.239931,-22.668751,-12.618751,-45.337502
1782299687561,-0.227318,0.435494,9.101004,-0.216522,-0.182107,0.237488,-23.85,-13.33125,-45.806252
1782299687567,-0.090927,0.37328,9.239788,-0.261115,-0.178442,0.235655,-23.85,-13.33125,-45.806252
1782299687569,-0.090927,0.37328,9.239788,-0.261115,-0.178442,0.235655,-24.31875,-12.731251,-45.637501
1782299687576,0.07657,0.244068,9.428821,-0.303265,-0.18394,0.225881,-24.31875,-12.731251,-45.637501
1782299687579,0.07657,0.244068,9.428821,-0.303265,-0.18394,0.225881,-25.950001,-12.150001,-42.300003
1782299687584,0.208176,0.153141,9.596319,-0.325256,-0.206542,0.208777,-25.950001,-12.150001,-42.300003
1782299687590,0.208176,0.153141,9.596319,-0.325256,-0.206542,0.208777,-23.475,-12.618751,-43.96875
1782299687593,0.189033,0.165105,9.675281,-0.318536,-0.242583,0.187397,-23.475,-12.618751,-43.96875
1782299687598,0.189033,0.165105,9.675281,-0.318536,-0.242583,0.187397,-24.675001,-11.56875,-45.018753
1782299687601,0.189033,0.165105,9.675281,-0.287382,-0.270072,0.16846,-24.675001,-11.56875,-45.018753
1782299687602,0.129212,0.294317,9.675281,-0.287382,-0.270072,0.16846,-24.675001,-11.56875,-45.018753
1782299687621,0.210568,0.557528,9.211073,-0.163988,-0.268239,0.148912,-24.112501,-12.168751,-43.068752
1782299687627,0.222533,0.727418,8.873686,-0.079077,-0.241972,0.148301,-24.112501,-12.168751,-43.068752
1782299687628,0.222533,0.727418,8.873686,-0.079077,-0.241972,0.148301,-24.656252,-13.05,-44.287502
1782299687636,0.177069,0.875773,8.474084,-0.010661,-0.171722,0.134251,-24.656252,-13.05,-44.287502
1782299687638,0.177069,0.875773,8.474084,-0.010661,-0.171722,0.134251,-24.993752,-11.56875,-44.568752
1782299687644,0.306281,1.18684,7.916557,0.023548,-0.158283,0.134251,-24.993752,-11.56875,-44.568752
1782299687650,0.306281,1.18684,7.916557,0.023548,-0.158283,0.134251,-25.406252,-12.281251,-45.337502
1782299687653,0.339781,1.418944,7.847165,0.022937,-0.124075,0.144025,-25.406252,-12.281251,-45.337502
1782299687659,0.339781,1.418944,7.847165,0.022937,-0.124075,0.144025,-23.081251,-11.45625,-43.350002
1782299687661,0.306281,1.485943,7.811273,-0.002109,-0.02145,0.150745,-23.081251,-11.45625,-43.350002
1782299687668,0.306281,1.485943,7.811273,-0.002109,-0.02145,0.150745,-25.800001,-10.81875,-43.950001
1782299687669,0.303888,1.433301,7.75863,-0.039982,0.090949,0.15441,-25.800001,-10.81875,-43.950001
1782299687680,0.27996,1.375873,7.883057,-0.097403,0.145316,0.14708,-24.975,-11.55,-45.337502
1782299687687,0.248854,1.325624,8.440585,-0.145051,0.132488,0.132419,-24.975,-11.55,-45.337502
1782299687688,0.248854,1.325624,8.440585,-0.145051,0.132488,0.132419,-24.300001,-10.106251,-44.25
1782299687696,0.184247,1.251446,9.01247,-0.149938,0.109886,0.115925,-24.300001,-10.106251,-44.25
1782299687698,0.184247,1.251446,9.01247,-0.149938,0.109886,0.115925,-23.19375,-10.837501,-45.018753
1782299687704,0.081356,1.15334,9.345072,-0.118173,0.086063,0.104319,-23.19375,-10.837501,-45.018753
1782299687712,0.081356,1.15334,9.345072,-0.118173,0.086063,0.104319,-25.44375,-12.3,-44.268753
1782299687713,0.095713,1.088734,9.46232,-0.076023,0.049411,0.100043,-25.44375,-12.3,-44.268753
1782299687718,0.095713,1.088734,9.46232,-0.076023,0.049411,0.100043,-24.937502,-11.55,-46.537502
1782299687721,0.172283,1.048056,9.488641,-0.035095,0.001152,0.096378,-24.937502,-11.55,-46.537502
1782299687728,0.172283,1.048056,9.488641,-0.035095,0.001152,0.096378,-24.0375,-10.96875,-46.6875
1782299687730,0.239282,1.026521,9.452749,0.000335,-0.041608,0.096378,-24.0375,-10.96875,-46.6875
1782299687739,0.251246,1.103091,9.290037,0.033322,-0.056269,0.101876,-24.937502,-11.85,-45.787502
1782299687747,0.16989,1.241875,9.194324,0.068141,-0.061767,0.107984,-24.937502,-11.85,-45.787502
1782299687748,0.16989,1.241875,9.194324,0.068141,-0.061767,0.107984,-25.743752,-10.81875,-45.318752
1782299687756,0.18664,1.368695,9.151253,0.106015,-0.058712,0.11898,-25.743752,-10.81875,-45.318752
1782299687758,0.18664,1.368695,9.151253,0.106015,-0.058712,0.11898,-25.593752,-11.700001,-44.868752
1782299687764,0.217747,1.435694,9.055541,0.139612,-0.048328,0.129364,-25.593752,-11.700001,-44.868752
1782299687769,0.217747,1.435694,9.055541,0.139612,-0.048328,0.129364,-25.125002,-11.700001,-45.1875
1782299687773,0.179462,1.473979,8.97897,0.163436,-0.027558,0.137306,-25.125002,-11.700001,-45.1875
1782299687778,0.179462,1.473979,8.97897,0.163436,-0.027558,0.137306,-25.9125,-11.400001,-44.118752
1782299687781,0.035892,1.529014,8.981363,0.178097,-0.004345,0.14036,-25.9125,-11.400001,-44.118752
1782299687788,0.035892,1.529014,8.981363,0.178097,-0.004345,0.14036,-24.093752,-11.418751,-44.418751
1782299687790,-0.019143,1.629512,8.971792,0.183594,0.029252,0.137917,-24.093752,-11.418751,-44.418751
1782299687799,-0.064606,1.739582,8.928721,0.171988,0.06285,0.130586,-25.406252,-11.85,-45.337502
1782299687807,-0.177069,1.828117,8.971792,0.143888,0.072013,0.118369,-25.406252,-11.85,-45.337502
1782299687812,-0.177069,1.828117,8.971792,0.143888,0.072013,0.118369,-24.7875,-12.150001,-45.9375
1782299687816,-0.224925,1.938186,9.151253,0.114567,0.054298,0.101876,-24.7875,-12.150001,-45.9375
1782299687818,-0.224925,1.938186,9.151253,0.114567,0.054298,0.101876,-25.743752,-12.3,-44.268753
1782299687824,-0.200997,1.98365,9.369,0.096241,0.026198,0.082939,-25.743752,-12.3,-44.268753
1782299687830,-0.200997,1.98365,9.369,0.096241,0.026198,0.082939,-26.00625,-11.53125,-46.087502
1782299687833,-0.105284,2.005185,9.507783,0.091965,0.003596,0.06278,-26.00625,-11.53125,-46.087502
1782299687839,-0.105284,2.005185,9.507783,0.091965,0.003596,0.06278,-25.368752,-11.83125,-46.556252
1782299687841,0.045464,2.019542,9.553248,0.093797,-0.006789,0.039567,-25.368752,-11.83125,-46.556252
1782299687848,0.045464,2.019542,9.553248,0.093797,-0.006789,0.039567,-24.300001,-12.150001,-46.706253
1782299687850,-0.09332,1.921437,9.644175,0.090132,-0.003735,0.005359,-24.300001,-12.150001,-46.706253
1782299687860,-0.057428,2.057827,9.644175,0.086467,-0.003124,-0.012356,-25.518751,-12.431251,-45.9375
1782299687867,0.074178,2.026721,9.893029,0.071806,-0.001902,-0.035569,-25.518751,-12.431251,-45.9375
1782299687868,0.074178,2.026721,9.893029,0.071806,-0.001902,-0.035569,-25.518751,-12.431251,-45.9375
1782299687877,0.117248,1.952543,10.208881,0.052869,0.035972,-0.046565,-25.518751,-12.431251,-45.9375
1782299687878,0.117248,1.952543,10.208881,0.052869,0.035972,-0.046565,-25.500002,-13.1625,-45.956253
1782299687884,0.217747,1.89033,10.46252,0.038819,0.09828,-0.047175,-25.500002,-13.1625,-45.956253
1782299687889,0.217747,1.89033,10.46252,0.038819,0.09828,-0.047175,-26.00625,-12.58125,-45.037502
1782299687893,0.229711,1.732404,10.718552,0.022937,0.175249,-0.045954,-26.00625,-12.58125,-45.037502
1782299687899,0.229711,1.732404,10.718552,0.022937,0.175249,-0.045954,-23.700001,-11.700001,-47.006252
1782299687901,0.184247,1.521835,11.032012,0.025991,0.243055,-0.042289,-23.700001,-11.700001,-47.006252
1782299687908,0.184247,1.521835,11.032012,0.025991,0.243055,-0.042289,-24.0375,-12.150001,-45.637501
1782299687910,0.136391,1.342373,11.297616,0.055924,0.302309,-0.040456,-24.0375,-12.150001,-45.637501
1782299687921,0.09332,1.253839,11.44597,0.10968,0.340793,-0.045954,-24.69375,-14.19375,-46.725002
1782299687927,0.071785,1.189233,11.620646,0.182373,0.349956,-0.056338,-24.69375,-14.19375,-46.725002
1782299687928,0.071785,1.189233,11.620646,0.182373,0.349956,-0.056338,-24.843752,-14.043751,-46.875
1782299687936,0.002393,1.251446,11.778573,0.270337,0.354232,-0.069167,-24.843752,-14.043751,-46.875
1782299687938,0.002393,1.251446,11.778573,0.270337,0.354232,-0.069167,-24.31875,-12.450001,-45.637501
1782299687944,-0.136391,1.402194,11.644575,0.365632,0.332241,-0.082606,-24.31875,-12.450001,-45.637501
1782299687949,-0.136391,1.402194,11.644575,0.365632,0.332241,-0.082606,-24.993752,-13.1625,-47.475002
1782299687953,-0.260818,1.56012,11.168403,0.435882,0.262602,-0.093601,-24.993752,-13.1625,-47.475002
1782299687959,-0.260818,1.56012,11.168403,0.435882,0.262602,-0.093601,-22.837502,-14.212501,-47.775002
1782299687961,-0.265603,1.710868,10.950655,0.454207,0.155701,-0.100932,-22.837502,-14.212501,-47.775002
1782299687968,-0.265603,1.710868,10.950655,0.454207,0.155701,-0.100932,-22.987501,-15.543751,-46.893753
1782299687970,-0.189033,1.866402,10.79273,0.435271,0.08423,-0.105818,-22.987501,-15.543751,-46.893753
1782299687980,-0.059821,1.933401,10.608482,0.379682,0.05613,-0.110705,-23.043751,-14.812501,-45.825001
1782299687987,0.102891,1.931008,10.618054,0.288052,0.040248,-0.114981,-23.043751,-14.812501,-45.825001
1782299687988,0.102891,1.931008,10.618054,0.288052,0.040248,-0.114981,-23.38125,-13.05,-46.106251
1782299687996,0.198604,1.89033,10.881264,0.192757,0.023143,-0.123534,-23.38125,-13.05,-46.106251
1782299687998,0.198604,1.89033,10.881264,0.192757,0.023143,-0.123534,-23.775002,-14.793751,-46.575001
1782299688004,0.241675,1.761117,11.113368,0.116399,0.033528,-0.134529,-23.775002,-14.793751,-46.575001
1782299688009,0.241675,1.761117,11.113368,0.116399,0.033528,-0.134529,-23.34375,-14.062501,-46.575001
1782299688013,0.227318,1.538585,11.137296,0.052258,0.060406,-0.147357,-23.34375,-14.062501,-46.575001
1782299688020,0.227318,1.538585,11.137296,0.052258,0.060406,-0.147357,-23.268751,-16.125,-46.893753
1782299688021,0.20339,1.222732,11.213867,-0.016769,0.086673,-0.160796,-23.268751,-16.125,-46.893753
1782299688028,0.20339,1.222732,11.213867,-0.016769,0.086673,-0.160796,-23.700001,-15.075001,-48.393753
1782299688030,0.184247,0.926022,11.383757,-0.092517,0.117827,-0.169959,-23.700001,-15.075001,-48.393753
1782299688039,0.145962,0.617348,11.584754,-0.167653,0.137986,-0.171181,-22.44375,-13.500001,-46.706253
1782299688047,0.124427,0.342174,11.804894,-0.233626,0.153869,-0.16324,-22.44375,-13.500001,-46.706253
1782299688048,0.124427,0.342174,11.804894,-0.233626,0.153869,-0.16324,-23.19375,-14.6625,-45.65625
1782299688056,0.136391,0.114855,12.03939,-0.276998,0.173416,-0.144303,-23.19375,-14.6625,-45.65625
1782299688058,0.136391,0.114855,12.03939,-0.276998,0.173416,-0.144303,-21.9375,-15.1125,-46.875
1782299688065,0.248854,-0.069392,12.068104,-0.278219,0.192964,-0.123534,-21.9375,-15.1125,-46.875
1782299688069,0.248854,-0.069392,12.068104,-0.278219,0.192964,-0.123534,-23.325001,-14.062501,-47.175003
1782299688073,0.301496,-0.162712,11.888643,-0.233626,0.196629,-0.106429,-23.325001,-14.062501,-47.175003
1782299688078,0.301496,-0.162712,11.888643,-0.233626,0.196629,-0.106429,-22.518751,-15.1125,-47.643753
1782299688081,0.232104,-0.105284,11.553648,-0.150549,0.182579,-0.096045,-22.518751,-15.1125,-47.643753
1782299688088,0.232104,-0.105284,11.553648,-0.150549,0.182579,-0.096045,-22.837502,-14.212501,-47.775002
1782299688090,0.129212,0.143569,11.094225,-0.04548,0.163031,-0.089936,-22.837502,-14.212501,-47.775002
1782299688100,-0.019143,0.294317,10.455342,0.049204,0.14776,-0.079551,-20.700001,-15.13125,-47.643753
1782299688108,-0.172283,0.452243,9.8356,0.118232,0.092171,-0.075886,-21.637501,-14.681251,-47.493752
1782299688117,-0.224925,0.646062,9.493427,0.164047,0.040859,-0.07894,-21.637501,-14.681251,-47.493752
1782299688121,-0.224925,0.646062,9.493427,0.164047,0.040859,-0.07894,-21.225,-14.400001,-46.125
1782299688125,-0.241675,0.844666,9.144075,0.195201,0.005428,-0.090547,-21.225,-14.400001,-46.125
1782299688129,-0.241675,0.844666,9.144075,0.195201,0.005428,-0.090547,-23.00625,-14.3625,-47.175003
1782299688133,-0.272782,0.973879,8.766009,0.192146,-0.027558,-0.110705,-23.00625,-14.3625,-47.175003
1782299688138,-0.272782,0.973879,8.766009,0.192146,-0.027558,-0.110705,-22.25625,-14.812501,-46.575001
1782299688142,-0.263211,1.06002,8.569797,0.143277,-0.087423,-0.129031,-22.25625,-14.812501,-46.575001
1782299688148,-0.263211,1.06002,8.569797,0.143277,-0.087423,-0.129031,-22.25625,-15.1125,-46.575001
1782299688150,-0.148355,1.064806,8.639189,0.066919,-0.128962,-0.147357,-22.25625,-15.1125,-46.575001
1782299688159,-0.009571,0.947558,8.689438,-0.016158,-0.133849,-0.163851,-22.06875,-14.212501,-48.093754
1782299688169,0.100499,0.79681,8.739687,-0.096182,-0.11369,-0.176068,-22.275002,-14.08125,-46.575001
1782299688176,0.253639,0.696311,8.928721,-0.154825,-0.088645,-0.182177,-22.275002,-14.08125,-46.575001
1782299688178,0.253639,0.696311,8.928721,-0.154825,-0.088645,-0.182177,-19.668751,-15.88125,-46.125
1782299688184,0.339781,0.617348,9.139289,-0.17254,-0.052604,-0.186453,-19.668751,-15.88125,-46.125
1782299688189,0.339781,0.617348,9.139289,-0.17254,-0.052604,-0.186453,-20.887501,-14.681251,-47.025002
1782299688193,0.413958,0.555135,9.175182,-0.148716,-0.013508,-0.186453,-20.887501,-14.681251,-47.025002
1782299688198,0.413958,0.555135,9.175182,-0.148716,-0.013508,-0.186453,-21.918751,-15.8625,-46.893753
1782299688202,0.433101,0.51685,9.050755,-0.10901,0.008483,-0.189507,-21.918751,-15.8625,-46.893753
1782299688208,0.433101,0.51685,9.050755,-0.10901,0.008483,-0.189507,-20.8125,-14.118751,-45.356251
1782299688210,0.430708,0.48335,8.9024,-0.071136,-0.004345,-0.198059,-20.8125,-14.118751,-45.356251
1782299688219,0.401994,0.4666,8.794723,-0.046091,-0.025115,-0.210887,-22.481251,-15.093751,-48.693752
1782299688229,0.342174,0.4666,8.787544,-0.036317,-0.023893,-0.227991,-22.06875,-14.962501,-47.493752
1782299688236,0.275175,0.521635,8.825829,-0.052199,-0.004956,-0.24082,-22.06875,-14.962501,-47.493752
1782299688238,0.275175,0.521635,8.825829,-0.052199,-0.004956,-0.24082,-20.2875,-15.731251,-45.975002
1782299688245,0.217747,0.550349,8.847365,-0.094349,0.005428,-0.246928,-20.2875,-15.731251,-45.975002
1782299688249,0.217747,0.550349,8.847365,-0.094349,0.005428,-0.246928,-21.1875,-14.83125,-47.175003
1782299688253,0.160319,0.547956,9.010077,-0.137721,-0.011065,-0.244485,-21.1875,-14.83125,-47.175003
1782299688259,0.160319,0.547956,9.010077,-0.137721,-0.011065,-0.244485,-21.1875,-14.83125,-46.875
1782299688262,0.117248,0.591027,9.218253,-0.155436,-0.023893,-0.2341,-21.1875,-14.83125,-46.875
1782299688268,0.117248,0.591027,9.218253,-0.155436,-0.023893,-0.2341,-21.31875,-16.012501,-46.275002
1782299688270,0.09332,0.634098,9.254144,-0.134055,-0.013508,-0.223715,-21.31875,-16.012501,-46.275002
1782299688279,0.064606,0.713061,9.091433,-0.089462,0.00665,-0.213942,-21.46875,-15.1125,-47.643753
1782299688289,0.098106,0.847059,8.835401,-0.047313,0.007261,-0.204168,-21.918751,-15.562501,-47.193752
1782299688296,0.165105,0.981057,8.663118,-0.016158,-0.023282,-0.192561,-21.918751,-15.562501,-47.193752
1782299688298,0.165105,0.981057,8.663118,-0.016158,-0.023282,-0.192561,-21.31875,-16.012501,-46.275002
1782299688305,0.155533,1.138984,8.531512,0.007054,-0.052604,-0.174235,-21.31875,-16.012501,-46.275002
1782299688309,0.155533,1.138984,8.531512,0.007054,-0.052604,-0.174235,-20.6625,-16.1625,-47.643753
1782299688313,0.138784,1.268196,8.409479,0.034543,-0.053826,-0.153466,-20.6625,-16.1625,-47.643753
1782299688319,0.138784,1.268196,8.409479,0.034543,-0.053826,-0.153466,-21.337502,-14.981251,-47.025002
1782299688322,0.117248,1.328017,8.263516,0.047372,-0.031224,-0.132086,-21.337502,-14.981251,-47.025002
1782299688328,0.117248,1.328017,8.263516,0.047372,-0.031224,-0.132086,-21.337502,-14.981251,-47.025002
1782299688330,0.098106,1.335195,8.158232,0.040652,0.007872,-0.109484,-21.337502,-14.981251,-47.025002
1782299688339,0.057428,1.349552,8.227623,0.016828,0.028641,-0.087492,-21.450001,-14.812501,-48.393753
1782299688349,0.0335,1.402194,8.399907,-0.003941,0.046356,-0.065501,-20.8125,-17.043751,-47.043751
1782299688357,-0.043071,1.426122,8.574583,-0.009439,0.075678,-0.04351,-20.8125,-17.043751,-47.043751
1782299688358,-0.043071,1.426122,8.574583,-0.009439,0.075678,-0.04351,-22.012501,-16.725,-47.8125
1782299688365,-0.07657,1.473979,8.639189,0.002778,0.116606,-0.022741,-22.012501,-16.725,-47.8125
1782299688369,-0.07657,1.473979,8.639189,0.002778,0.116606,-0.022741,-20.38125,-14.83125,-48.393753
1782299688373,-0.153141,1.485943,8.579369,0.02538,0.139819,-0.004415,-20.38125,-14.83125,-48.393753
1782299688379,-0.153141,1.485943,8.579369,0.02538,0.139819,-0.004415,-20.681252,-15.562501,-47.643753
1782299688382,-0.20339,1.540978,8.584155,0.047372,0.139208,0.010246,-20.681252,-15.562501,-47.643753
1782299688388,-0.20339,1.540978,8.584155,0.047372,0.139208,0.010246,-20.85,-16.462502,-46.293751
1782299688390,-0.174676,1.543371,8.624833,0.060811,0.123325,0.023685,-20.85,-16.462502,-46.293751
1782299688399,-0.133998,1.543371,8.718153,0.0602,0.099502,0.033459,-20.418751,-15.88125,-46.59375
1782299688409,-0.129212,1.51705,8.787544,0.052869,0.0769,0.043843,-21.09375,-16.143751,-48.412502
1782299688416,-0.145962,1.497907,8.876079,0.044317,0.049411,0.053006,-21.09375,-16.143751,-48.412502
1782299688418,-0.145962,1.497907,8.876079,0.044317,0.049411,0.053006,-20.19375,-16.743752,-47.8125
1782299688425,-0.165105,1.512264,8.988541,0.047982,0.025587,0.059726,-20.19375,-16.743752,-47.8125
1782299688429,-0.165105,1.512264,8.988541,0.047982,0.025587,0.059726,-19.743752,-16.462502,-47.8125
1782299688437,-0.160319,1.574477,9.139289,0.07486,0.012759,0.06278,-19.743752,-16.462502,-47.8125
1782299688439,-0.160319,1.574477,9.139289,0.07486,0.012759,0.06278,-19.743752,-16.762501,-47.8125
1782299688442,-0.153141,1.67019,9.146468,0.120064,0.010315,0.064613,-19.743752,-16.762501,-47.8125
1782299688448,-0.153141,1.67019,9.146468,0.120064,0.010315,0.064613,-20.643751,-16.143751,-48.712502
1782299688451,-0.086142,1.787439,9.079468,0.164658,0.01337,0.064613,-20.643751,-16.143751,-48.712502
1782299688459,0.021535,1.892723,8.969399,0.193979,0.012148,0.063391,-20.4375,-14.85,-46.875
1782299688469,0.081356,2.012364,8.909578,0.197644,0.007261,0.058504,-21.243752,-16.743752,-48.112503
1782299688476,0.136391,2.045863,8.871293,0.169544,-0.006789,0.056672,-21.243752,-16.743752,-48.112503
1782299688478,0.136391,2.045863,8.871293,0.169544,-0.006789,0.056672,-18.65625,-18.243752,-47.0625
1782299688485,0.196211,1.993221,8.97897,0.116399,-0.032445,0.060948,-18.65625,-18.243752,-47.0625
1782299688489,0.196211,1.993221,8.97897,0.116399,-0.032445,0.060948,-22.368752,-15.993751,-46.743752
1782299688493,0.198604,1.875973,9.333107,0.058978,-0.067265,0.064613,-22.368752,-15.993751,-46.743752
1782299688499,0.198604,1.875973,9.333107,0.058978,-0.067265,0.064613,-20.53125,-15.712501,-47.793751
1782299688502,0.153141,1.78026,9.818851,0.027824,-0.103306,0.065835,-20.53125,-15.712501,-47.793751
1782299688508,0.153141,1.78026,9.818851,0.027824,-0.103306,0.065835,-19.612501,-16.1625,-47.962502
1782299688510,0.124427,1.603191,10.362022,0.034543,-0.121021,0.067667,-19.612501,-16.1625,-47.962502
1782299688520,0.193819,1.31366,10.876479,0.079136,-0.111247,0.074998,-19.63125,-16.181252,-46.893753
1782299688529,0.358923,1.292124,11.321543,0.15916,-0.088645,0.082939,-19.425001,-17.493752,-47.8125
1782299688537,0.308674,1.182054,11.546469,0.26545,-0.044663,0.079274,-19.425001,-17.493752,-47.8125
1782299688538,0.308674,1.182054,11.546469,0.26545,-0.044663,0.079274,-20.493752,-16.743752,-48.112503
1782299688545,0.301496,1.143769,11.371792,0.34975,0.015813,0.092713,-20.493752,-16.743752,-48.112503
1782299688549,0.301496,1.143769,11.371792,0.34975,0.015813,0.092713,-20.793751,-17.043751,-47.8125
1782299688553,0.162712,1.07677,11.024833,0.389456,0.059184,0.092713,-20.793751,-17.043751,-47.8125
1782299688559,0.162712,1.07677,11.024833,0.389456,0.059184,0.092713,-19.40625,-17.043751,-48.562504
1782299688563,0.232104,1.141376,10.850157,0.371741,-0.014119,0.079884,-19.40625,-17.043751,-48.562504
1782299688568,0.232104,1.141376,10.850157,0.371741,-0.014119,0.079884,-19.78125,-16.462502,-46.743752
1782299688571,0.282353,1.050449,10.919549,0.339976,-0.051993,0.063391,-19.78125,-16.462502,-46.743752
1782299688578,0.282353,1.050449,10.919549,0.339976,-0.051993,0.063391,-20.306252,-16.893751,-48.712502
1782299688579,0.277567,0.969093,10.802301,0.289885,-0.072151,0.017576,-20.306252,-16.893751,-48.712502
1782299688589,0.464208,0.756132,10.756837,0.228187,-0.137514,-0.042289,-21.056252,-19.106251,-47.231251
1782299688597,0.260818,0.775275,11.08944,0.154884,-0.24075,-0.138194,-21.056252,-19.106251,-47.231251
1782299688598,0.260818,0.775275,11.08944,0.154884,-0.24075,-0.138194,-20.587502,-18.356251,-47.981251
1782299688605,0.198604,0.954736,10.752052,0.082802,-0.224868,-0.242041,-20.587502,-18.356251,-47.981251
1782299688608,0.198604,0.954736,10.752052,0.082802,-0.224868,-0.242041,-18.65625,-18.993752,-46.762501
1782299688614,0.27996,1.162912,10.608482,0.028435,-0.244415,-0.298852,-18.65625,-18.993752,-46.762501
1782299688619,0.27996,1.162912,10.608482,0.028435,-0.244415,-0.298852,-19.856251,-18.075001,-47.662502
1782299688622,0.217747,1.529014,10.747266,-0.030819,-0.237696,-0.303128,-19.856251,-18.075001,-47.662502
1782299688628,0.217747,1.529014,10.747266,-0.030819,-0.237696,-0.303128,-20.306252,-18.675001,-46.912502
1782299688631,0.107677,1.909472,11.067904,-0.052199,-0.203487,-0.262811,-20.306252,-18.675001,-46.912502
1782299688639,0.069392,2.230111,11.084654,-0.028987,-0.146677,-0.187063,-20.56875,-19.387501,-47.981251
1782299688649,-0.20339,2.445465,10.94587,-0.003941,-0.139347,-0.081995,-19.78125,-19.40625,-48.450001
1782299688656,-0.445065,2.392823,10.689838,-0.03876,-0.135071,0.027961,-19.78125,-19.40625,-48.450001
1782299688658,-0.445065,2.392823,10.689838,-0.03876,-0.135071,0.027961,-20.75625,-18.956251,-47.0625
1782299688665,-0.607777,2.184647,10.515162,-0.141997,-0.161338,0.123256,-20.75625,-18.956251,-47.0625
1782299688668,-0.607777,2.184647,10.515162,-0.141997,-0.161338,0.123256,-20.4375,-18.956251,-47.53125
1782299688674,-0.667598,2.127219,10.570198,-0.268446,-0.193714,0.220383,-20.4375,-18.956251,-47.53125
1782299688679,-0.667598,2.127219,10.570198,-0.268446,-0.193714,0.220383,-20.625,-17.625,-47.662502
1782299688682,-0.758525,1.806581,10.730516,-0.396727,-0.212039,0.312013,-20.625,-17.625,-47.662502
1782299688688,-0.758525,1.806581,10.730516,-0.396727,-0.212039,0.312013,-20.2875,-19.40625,-46.931252
1782299688691,-0.758525,1.806581,10.730516,-0.500574,-0.218759,0.398756,-20.2875,-19.40625,-46.931252
1782299688692,-0.617348,1.177269,10.905192,-0.500574,-0.218759,0.398756,-20.2875,-19.40625,-46.931252
1782299688698,-0.617348,1.177269,10.905192,-0.500574,-0.218759,0.398756,-20.75625,-18.225,-47.831253
1782299688700,-0.411565,0.382852,11.199509,-0.559828,-0.216926,0.440295,-20.75625,-18.225,-47.831253
1782299688710,-0.320638,-0.09332,11.491434,-0.557995,-0.204098,0.432964,-21.0375,-17.325001,-49.181252
1782299688717,-0.320638,-0.09332,11.491434,-0.496909,-0.183329,0.397534,-21.0375,-17.325001,-49.181252
1782299688718,-0.282353,-0.267996,11.393328,-0.496909,-0.183329,0.397534,-21.0375,-17.325001,-49.181252
1782299688719,-0.282353,-0.267996,11.393328,-0.496909,-0.183329,0.397534,-22.6875,-18.9375,-47.831253
1782299688726,-0.222533,-0.241675,11.05594,-0.392451,-0.204098,0.348054,-22.6875,-18.9375,-47.831253
1782299688728,-0.222533,-0.241675,11.05594,-0.392451,-0.204098,0.348054,-21.956251,-18.50625,-47.53125
1782299688734,-0.019143,-0.150748,10.685052,-0.273332,-0.214483,0.292465,-21.956251,-18.50625,-47.53125
1782299688739,-0.019143,-0.150748,10.685052,-0.273332,-0.214483,0.292465,-20.512501,-16.012501,-47.793751
1782299688754,0.105284,0.62692,9.727924,-0.07358,-0.110025,0.206333,-23.94375,-16.556252,-48.712502
1782299688759,0.105284,0.62692,9.727924,-0.07358,-0.110025,0.206333,-20.325001,-17.643751,-47.662502
1782299688760,0.155533,0.806381,9.196717,-0.022878,-0.006178,0.194727,-20.325001,-17.643751,-47.662502
1782299688769,0.155533,0.806381,9.196717,-0.019213,0.095836,0.181899,-20.325001,-17.643751,-47.662502
1782299688770,0.224925,0.971486,8.835401,-0.019213,0.095836,0.181899,-21.993752,-17.025002,-48.112503
1782299688777,0.114855,1.189233,8.68226,-0.047923,0.174638,0.183121,-21.993752,-17.025002,-48.112503
1782299688778,0.114855,1.189233,8.68226,-0.047923,0.174638,0.183121,-22.1625,-16.875,-47.662502
1782299688785,0.114855,1.189233,8.68226,-0.099847,0.237557,0.194116,-22.1625,-16.875,-47.662502
1782299688786,-0.01675,1.22034,8.68226,-0.099847,0.237557,0.194116,-22.1625,-16.875,-47.662502
1782299688788,-0.01675,1.22034,8.68226,-0.099847,0.237557,0.194116,-20.587502,-17.625,-48.731251
1782299688794,-0.01675,1.22034,8.68226,-0.160322,0.271155,0.213664,-20.587502,-17.625,-48.731251
1782299688795,-0.387637,1.371087,8.864114,-0.160322,0.271155,0.213664,-20.587502,-17.625,-48.731251
1782299688800,-0.387637,1.371087,8.864114,-0.160322,0.271155,0.213664,-20.737501,-17.775002,-48.581253
1782299688817,-0.392423,0.971486,9.146468,-0.256228,0.18991,0.276583,-20.737501,-17.775002,-48.581253
1782299688819,-0.392423,0.971486,9.146468,-0.256228,0.18991,0.276583,-22.21875,-15.543751,-47.193752
1782299688820,-0.29671,0.607777,9.227824,-0.316704,0.122104,0.277805,-22.21875,-15.543751,-47.193752
1782299688830,-0.177069,0.449851,9.258931,-0.385732,0.082397,0.262533,-19.331251,-16.181252,-47.193752
1782299688837,-0.145962,0.342174,9.357036,-0.442542,0.050021,0.247261,-19.331251,-16.181252,-47.193752
1782299688838,-0.145962,0.342174,9.357036,-0.442542,0.050021,0.247261,-19.331251,-16.181252,-47.193752
1782299688848,0.002393,0.256032,9.569997,-0.468809,0.027419,0.24604,-19.331251,-16.181252,-47.193752
1782299688849,0.002393,0.256032,9.569997,-0.468809,0.027419,0.24604,-21.262501,-15.69375,-48.562504
1782299688854,0.002393,0.256032,9.569997,-0.440099,0.03475,0.254592,-21.262501,-15.69375,-48.562504
1782299688855,0.131605,0.129212,9.794922,-0.440099,0.03475,0.254592,-21.262501,-15.69375,-48.562504
1782299688860,0.131605,0.129212,9.794922,-0.440099,0.03475,0.254592,-21.1875,-15.975,-50.381252
1782299688863,0.22014,-0.009571,9.881064,-0.353356,0.094004,0.26009,-21.1875,-15.975,-50.381252
1782299688869,0.22014,-0.009571,9.881064,-0.353356,0.094004,0.26009,-21.1875,-15.975,-50.381252
1782299688871,0.174676,-0.019143,9.878671,-0.23607,0.178303,0.252148,-21.1875,-15.975,-50.381252
1782299688878,0.174676,-0.019143,9.878671,-0.23607,0.178303,0.252148,-19.275002,-16.612501,-48.412502
1782299688880,0.014357,-0.083749,9.613068,-0.124281,0.236335,0.237488,-19.275002,-16.612501,-48.412502
1782299688889,0.014357,-0.083749,9.613068,-0.058919,0.244277,0.214275,-19.275002,-16.612501,-48.412502
1782299688890,-0.011964,0.007178,9.366607,-0.058919,0.244277,0.214275,-22.743752,-15.225,-49.612503
1782299688897,-0.023928,0.260818,9.306787,-0.026543,0.18319,0.191062,-22.743752,-15.225,-49.612503
1782299688898,-0.023928,0.260818,9.306787,-0.026543,0.18319,0.191062,-20.212502,-14.981251,-48.843754
1782299688906,-0.114855,0.433101,9.246966,-0.009439,0.092782,0.175179,-20.212502,-14.981251,-48.843754
1782299688909,-0.114855,0.433101,9.246966,-0.009439,0.092782,0.175179,-22.875,-16.106251,-49.781254
1782299688915,-0.074178,0.545564,8.928721,-0.004552,-0.002513,0.153188,-22.875,-16.106251,-49.781254
1782299688920,-0.074178,0.545564,8.928721,-0.004552,-0.002513,0.153188,-19.931252,-15.88125,-47.193752
1782299688923,-0.081356,0.722632,8.62244,-0.013715,-0.097808,0.125699,-19.931252,-15.88125,-47.193752
1782299688929,-0.081356,0.722632,8.62244,-0.013715,-0.097808,0.125699,-20.700001,-15.562501,-47.193752
1782299688931,-0.002393,0.90688,8.253945,-0.024711,-0.166836,0.102486,-20.700001,-15.562501,-47.193752
1782299688939,-0.002393,0.90688,8.253945,-0.024711,-0.166836,0.102486,-20.212502,-14.231251,-49.612503
1782299688940,0.064606,0.98345,7.878272,-0.037539,-0.199822,0.082328,-20.212502,-14.231251,-49.612503
1782299688954,0.157926,1.067199,7.727524,-0.061973,-0.208374,0.064613,-20.85,-14.981251,-47.793751
1782299688957,0.157926,1.067199,7.727524,-0.088851,-0.19799,0.057893,-20.85,-14.981251,-47.793751
1782299688958,0.208176,1.167697,7.737095,-0.088851,-0.19799,0.057893,-20.85,-14.981251,-47.793751
1782299688959,0.208176,1.167697,7.737095,-0.088851,-0.19799,0.057893,-22.25625,-14.08125,-47.625
1782299688966,0.244068,1.179662,7.749059,-0.111453,-0.190659,0.059115,-22.25625,-14.08125,-47.625
1782299688968,0.244068,1.179662,7.749059,-0.111453,-0.190659,0.059115,-21.28125,-13.181251,-50.043751
1782299688975,0.323031,1.091127,7.839986,-0.128558,-0.174166,0.061559,-21.28125,-13.181251,-50.043751
1782299688979,0.323031,1.091127,7.839986,-0.128558,-0.174166,0.061559,-21.918751,-14.812501,-47.643753
1782299688984,0.409173,1.0002,8.074483,-0.145662,-0.146066,0.057893,-21.918751,-14.812501,-47.643753
1782299688988,0.409173,1.0002,8.074483,-0.145662,-0.146066,0.057893,-20.19375,-15.262501,-49.312504
1782299688992,0.409173,0.935594,8.41905,-0.146883,-0.117355,0.051785,-20.19375,-15.262501,-49.312504
1782299688999,0.409173,0.935594,8.41905,-0.146883,-0.117355,0.051785,-21.46875,-14.812501,-47.643753
1782299689001,0.354138,0.969093,8.684653,-0.136499,-0.08498,0.046898,-21.46875,-14.812501,-47.643753
1782299689010,0.354138,0.969093,8.684653,-0.113286,-0.046495,0.042622,-21.46875,-14.812501,-47.643753
1782299689011,0.31346,0.863809,8.880865,-0.113286,-0.046495,0.042622,-20.512501,-13.931251,-50.062504
1782299689018,0.320638,0.744168,9.007684,-0.085186,-0.015341,0.032848,-20.512501,-13.931251,-50.062504
1782299689019,0.320638,0.744168,9.007684,-0.085186,-0.015341,0.032848,-21.918751,-14.3625,-47.943752
1782299689027,0.22014,0.713061,9.251751,-0.046702,0.007872,0.017576,-21.918751,-14.3625,-47.943752
1782299689029,0.22014,0.713061,9.251751,-0.046702,0.007872,0.017576,-21.46875,-14.38125,-47.943752
1782299689035,0.143569,0.660419,9.325929,0.000946,0.043913,-0.005026,-21.46875,-14.38125,-47.943752
1782299689040,0.143569,0.660419,9.325929,0.000946,0.043913,-0.005026,-21.450001,-14.3625,-48.693752
1782299689054,-0.055035,0.885344,9.426428,0.106625,0.089117,-0.047175,-20.8125,-14.962501,-48.843754
1782299689058,-0.055035,0.885344,9.426428,0.106625,0.089117,-0.047175,-20.38125,-14.83125,-48.693752
1782299689060,-0.055035,1.024128,9.340287,0.160382,0.095225,-0.06428,-20.38125,-14.83125,-48.693752
1782299689069,-0.055035,1.024128,9.340287,0.160382,0.095225,-0.06428,-20.400002,-15.13125,-47.643753
1782299689070,0.021535,1.01695,9.144075,0.198866,0.075678,-0.081995,-20.400002,-15.13125,-47.643753
1782299689077,0.153141,1.167697,8.983756,0.209862,0.04208,-0.113149,-20.400002,-15.13125,-47.643753
1782299689079,0.153141,1.167697,8.983756,0.209862,0.04208,-0.113149,-22.03125,-13.9125,-49.593754
1782299689086,0.11007,1.473979,8.993327,0.199477,0.009094,-0.136973,-22.03125,-13.9125,-49.593754
1782299689088,0.11007,1.473979,8.993327,0.199477,0.009094,-0.136973,-19.856251,-15.562501,-49.762501
1782299689095,0.095713,1.617548,9.074683,0.167101,0.009704,-0.144303,-19.856251,-15.562501,-49.762501
1782299689100,0.095713,1.617548,9.074683,0.167101,0.009704,-0.144303,-19.78125,-15.731251,-47.493752
1782299689103,0.095713,1.617548,9.074683,0.132282,0.012148,-0.140027,-19.78125,-15.731251,-47.493752
1782299689104,-0.09332,1.61037,9.361822,0.132282,0.012148,-0.140027,-19.78125,-15.731251,-47.493752
1782299689109,-0.09332,1.61037,9.361822,0.132282,0.012148,-0.140027,-20.793751,-15.993751,-48.862503
1782299689112,-0.270389,1.497907,9.718352,0.104793,0.004818,-0.138805,-20.793751,-15.993751,-48.862503
1782299689119,-0.270389,1.497907,9.718352,0.104793,0.004818,-0.138805,-19.40625,-16.743752,-48.862503
1782299689121,-0.358923,1.440479,10.070097,0.09563,-0.00068,-0.143692,-19.40625,-16.743752,-48.862503
1782299689130,-0.358923,1.440479,10.070097,0.108458,0.007261,-0.145525,-20.53125,-14.981251,-48.543751
1782299689131,-0.272782,1.397408,10.328522,0.108458,0.007261,-0.145525,-20.53125,-14.981251,-48.543751
1782299689138,-0.189033,1.366302,10.472091,0.130449,0.008483,-0.154077,-20.400002,-15.13125,-47.643753
1782299689146,-0.162712,1.361516,10.622839,0.145721,-0.012898,-0.154077,-20.400002,-15.13125,-47.643753
1782299689148,-0.162712,1.361516,10.622839,0.145721,-0.012898,-0.154077,-21.543751,-16.725,-48.112503
1782299689154,-0.045464,1.256232,10.783159,0.140834,-0.02878,-0.151633,-21.543751,-16.725,-48.112503
1782299689159,-0.045464,1.256232,10.783159,0.140834,-0.02878,-0.151633,-21.09375,-16.59375,-48.412502
1782299689163,0.052642,1.081556,10.976977,0.115178,-0.048939,-0.155909,-21.09375,-16.59375,-48.412502
1782299689168,0.052642,1.081556,10.976977,0.115178,-0.048939,-0.155909,-19.875,-16.1625,-48.712502
1782299689171,0.102891,0.897308,11.192331,0.079136,-0.065432,-0.162018,-19.875,-16.1625,-48.712502
1782299689178,0.102891,0.897308,11.192331,0.079136,-0.065432,-0.162018,-18.675001,-14.981251,-49.612503
1782299689180,0.196211,0.691526,11.41965,0.048593,-0.064821,-0.169959,-18.675001,-14.981251,-49.612503
1782299689189,0.196211,0.691526,11.41965,0.042485,-0.044052,-0.178511,-18.675001,-14.981251,-49.612503
1782299689190,0.272782,0.602991,11.608682,0.042485,-0.044052,-0.178511,-20.456251,-16.44375,-49.331253
1782299689198,0.253639,0.602991,11.819251,0.07425,-0.010454,-0.190729,-20.456251,-16.44375,-49.331253
1782299689199,0.253639,0.602991,11.819251,0.07425,-0.010454,-0.190729,-20.512501,-15.712501,-48.562504
1782299689206,0.179462,0.732204,11.769002,0.127395,0.014591,-0.209055,-20.512501,-15.712501,-48.562504
1782299689209,0.179462,0.732204,11.769002,0.127395,0.014591,-0.209055,-19.556252,-16.612501,-48.712502
1782299689215,0.066999,0.971486,11.553648,0.181762,0.01398,-0.215774,-19.556252,-16.612501,-48.712502
1782299689220,0.066999,0.971486,11.553648,0.181762,0.01398,-0.215774,-19.237501,-15.8625,-50.231251
1782299689223,-0.035892,1.122234,11.244973,0.206807,0.018867,-0.216996,-19.237501,-15.8625,-50.231251
1782299689229,-0.035892,1.122234,11.244973,0.206807,0.018867,-0.216996,-20.606251,-16.59375,-49.181252
1782299689232,-0.035892,1.122234,11.244973,0.192146,0.015202,-0.216385,-20.606251,-16.59375,-49.181252
1782299689233,-0.045464,1.177269,10.938692,0.192146,0.015202,-0.216385,-20.606251,-16.59375,-49.181252
1782299689238,-0.045464,1.177269,10.938692,0.192146,0.015202,-0.216385,-19.59375,-16.612501,-47.962502
1782299689240,-0.031107,1.222732,10.831015,0.136558,-0.003735,-0.219439,-19.59375,-16.612501,-47.962502
1782299689250,0.002393,1.239482,10.931513,0.058978,-0.020228,-0.230435,-19.706251,-17.043751,-48.562504
1782299689271,0.002393,1.239482,10.931513,-0.028987,-0.036721,-0.247539,-19.706251,-17.043751,-48.562504
1782299689272,0.114855,1.086342,11.051155,-0.117562,-0.054436,-0.260978,-20.175001,-16.44375,-48.862503
1782299689275,0.251246,0.835095,11.003298,-0.208581,-0.062988,-0.270752,-20.175001,-16.44375,-48.862503
1782299689280,0.251246,0.835095,11.003298,-0.208581,-0.062988,-0.270752,-20.175001,-16.44375,-48.862503
1782299689283,0.397209,0.454636,11.053547,-0.295934,-0.052604,-0.275639,-20.175001,-16.44375,-48.862503
1782299689289,0.397209,0.454636,11.053547,-0.295934,-0.052604,-0.275639,-19.275002,-17.34375,-47.662502
1782299689293,0.574277,0.081356,11.240187,-0.372293,-0.025726,-0.275028,-19.275002,-17.34375,-47.662502
1782299689299,0.574277,0.081356,11.240187,-0.372293,-0.025726,-0.275028,-18.018751,-19.143751,-47.681252
1782299689301,0.667598,-0.246461,11.587146,-0.421773,0.020089,-0.266476,-18.018751,-19.143751,-47.681252
1782299689310,0.691526,-0.461815,11.991534,-0.416886,0.053687,-0.253037,-19.6875,-16.743752,-49.631252
1782299689319,0.698704,-0.588634,12.161424,-0.344804,0.07018,-0.238987,-19.5,-18.075001,-49.181252
1782299689326,0.622134,-0.514457,11.926927,-0.214079,0.072013,-0.224326,-19.5,-18.075001,-49.181252
1782299689328,0.622134,-0.514457,11.926927,-0.214079,0.072013,-0.224326,-18.450001,-17.34375,-49.481251
1782299689335,0.519243,-0.318245,11.307187,-0.064417,0.079954,-0.205389,-18.450001,-17.34375,-49.481251
1782299689339,0.519243,-0.318245,11.307187,-0.064417,0.079954,-0.205389,-19.856251,-16.143751,-49.462502
1782299689343,0.411565,0.004786,10.58934,0.066919,0.07751,-0.181566,-19.856251,-16.143751,-49.462502
1782299689350,0.411565,0.004786,10.58934,0.066919,0.07751,-0.181566,-18.637501,-17.793751,-48.112503
1782299689352,0.267996,0.382852,9.914564,0.149997,0.068958,-0.160185,-18.637501,-17.793751,-48.112503
1782299689374,0.062213,0.904487,8.967006,0.140223,0.041469,-0.118647,-19.706251,-17.043751,-48.562504
1782299689379,0.062213,0.904487,8.967006,0.054702,0.02803,-0.111316,-17.2875,-17.6625,-47.962502
1782299689380,0.021535,1.067199,8.799509,0.054702,0.02803,-0.111316,-17.2875,-17.6625,-47.962502
1782299689386,0.055035,1.189233,8.844972,-0.063806,0.001152,-0.120479,-17.2875,-17.6625,-47.962502
1782299689388,0.055035,1.189233,8.844972,-0.063806,0.001152,-0.120479,-19.35,-18.525002,-48.581253
1782299689395,-0.119641,0.897308,9.196717,-0.192698,-0.028169,-0.14247,-19.35,-18.525002,-48.581253
1782299689399,-0.119641,0.897308,9.196717,-0.192698,-0.028169,-0.14247,-20.137501,-17.475,-48.881252
1782299689403,-0.081356,0.713061,9.323536,-0.293491,-0.061156,-0.141249,-20.137501,-17.475,-48.881252
1782299689408,-0.081356,0.713061,9.323536,-0.293491,-0.061156,-0.141249,-18.65625,-16.462502,-48.862503
1782299689412,0.131605,0.42353,9.785351,-0.351523,-0.060545,-0.167516,-18.65625,-16.462502,-48.862503
1782299689418,0.131605,0.42353,9.785351,-0.351523,-0.060545,-0.167516,-18.65625,-17.0625,-48.112503
1782299689420,0.138784,0.222533,10.125132,-0.344193,-0.004956,-0.190729,-18.65625,-17.0625,-48.112503
1782299689430,0.306281,0.07657,10.261523,-0.269667,0.06285,-0.211498,-18.056252,-17.362501,-47.662502
1782299689439,0.323031,-0.055035,10.094025,-0.178038,0.14104,-0.236544,-18.768751,-17.643751,-48.731251
1782299689446,0.339781,-0.081356,9.900207,-0.094349,0.18319,-0.254869,-18.768751,-17.643751,-48.731251
1782299689448,0.339781,-0.081356,9.900207,-0.094349,0.18319,-0.254869,-19.25625,-16.1625,-49.462502
1782299689455,0.356531,-0.055035,9.646568,-0.037539,0.196629,-0.26953,-19.25625,-16.1625,-49.462502
1782299689473,0.375673,-0.009571,9.440785,0.002168,0.201516,-0.279915,-18.1875,-17.512501,-48.581253
1782299689478,0.375673,-0.009571,9.440785,0.002168,0.201516,-0.279915,-18.450001,-17.34375,-49.481251
1782299689480,0.375673,-0.009571,9.440785,0.007665,0.201516,-0.279915,-18.450001,-17.34375,-49.481251
1782299689481,0.413958,0.205783,9.153646,0.007665,0.201516,-0.279915,-18.450001,-17.34375,-49.481251
1782299689489,0.413958,0.205783,9.153646,0.013774,0.203349,-0.272585,-18.450001,-17.34375,-49.481251
1782299689490,0.413958,0.205783,9.153646,0.013774,0.203349,-0.272585,-18.487501,-17.362501,-48.412502
1782299689491,0.342174,0.356531,8.990934,0.013774,0.203349,-0.272585,-18.487501,-17.362501,-48.412502
1782299689500,0.361316,0.437887,8.732509,0.013163,0.202127,-0.257924,-16.35,-16.78125,-50.081253
1782299689506,0.361316,0.437887,8.732509,-0.001498,0.194796,-0.243874,-16.35,-16.78125,-50.081253
1782299689507,0.284746,0.502493,8.567404,-0.001498,0.194796,-0.243874,-16.35,-16.78125,-50.081253
1782299689509,0.284746,0.502493,8.567404,-0.001498,0.194796,-0.243874,-17.887501,-17.8125,-48.112503
1782299689515,0.284746,0.502493,8.567404,-0.025321,0.182579,-0.232267,-17.887501,-17.8125,-48.112503
1782299689516,0.20339,0.631705,8.383157,-0.025321,0.182579,-0.232267,-17.887501,-17.8125,-48.112503
1782299689520,0.20339,0.631705,8.383157,-0.025321,0.182579,-0.232267,-17.043751,-18.243752,-50.400002
1782299689523,0.20339,0.631705,8.383157,-0.046091,0.156923,-0.219439,-17.043751,-18.243752,-50.400002
1782299689524,0.112463,0.760918,8.184553,-0.046091,0.156923,-0.219439,-17.043751,-18.243752,-50.400002
1782299689529,0.112463,0.760918,8.184553,-0.046091,0.156923,-0.219439,-17.268751,-17.362501,-48.731251
1782299689532,0.112463,0.760918,8.184553,-0.062584,0.125769,-0.202946,-17.268751,-17.362501,-48.731251
1782299689533,0.095713,0.835095,8.021841,-0.062584,0.125769,-0.202946,-17.268751,-17.362501,-48.731251
1782299689539,0.095713,0.835095,8.021841,-0.062584,0.125769,-0.202946,-17.118752,-18.262501,-48.131252
1782299689541,0.062213,0.827917,7.832808,-0.07358,0.099502,-0.184009,-17.118752,-18.262501,-48.131252
1782299689550,0.023928,0.844666,7.772987,-0.075412,0.07751,-0.168127,-16.987501,-17.38125,-48.412502
1782299689559,0.023928,0.844666,7.772987,-0.072358,0.058574,-0.153466,-16.987501,-17.38125,-48.412502
1782299689560,0.007178,0.878166,7.756238,-0.072358,0.058574,-0.153466,-17.362501,-15.6,-47.643753
1782299689573,0.057428,0.914058,7.739488,-0.071747,0.047578,-0.136362,-18.487501,-16.1625,-49.781254
1782299689575,0.07657,0.981057,7.756238,-0.085797,0.04208,-0.117425,-18.487501,-16.1625,-49.781254
1782299689580,0.07657,0.981057,7.756238,-0.085797,0.04208,-0.117425,-17.512501,-17.793751,-50.100002
1782299689584,0.031107,1.045663,7.866308,-0.109621,0.035361,-0.096045,-17.512501,-17.793751,-50.100002
1782299689589,0.031107,1.045663,7.866308,-0.109621,0.035361,-0.096045,-17.56875,-17.8125,-48.581253
1782299689592,-0.040678,1.098306,7.969199,-0.140775,0.021922,-0.074053,-17.56875,-17.8125,-48.581253
1782299689598,-0.040678,1.098306,7.969199,-0.140775,0.021922,-0.074053,-15.843751,-17.362501,-51.000004
1782299689601,-0.157926,1.131805,8.117554,-0.173151,-0.004345,-0.05023,-15.843751,-17.362501,-51.000004
1782299689610,-0.208176,1.134198,8.241981,-0.199418,-0.033667,-0.023963,-17.025002,-15.150001,-49.162502
1782299689619,-0.208176,1.134198,8.241981,-0.219576,-0.056269,-0.001361,-17.025002,-15.150001,-49.162502
1782299689621,-0.181855,1.105484,8.373586,-0.219576,-0.056269,-0.001361,-17.19375,-16.050001,-48.112503
1782299689627,-0.088534,1.086342,8.509977,-0.228739,-0.066043,0.015744,-17.19375,-16.050001,-48.112503
1782299689629,-0.088534,1.086342,8.509977,-0.228739,-0.066043,0.015744,-18.581251,-17.493752,-50.100002
1782299689636,-0.035892,1.026521,8.725331,-0.223852,-0.071541,0.029183,-18.581251,-17.493752,-50.100002
1782299689639,-0.035892,1.026521,8.725331,-0.223852,-0.071541,0.029183,-16.387501,-16.050001,-49.612503
1782299689644,-0.035892,1.026521,8.725331,-0.204916,-0.07093,0.038957,-16.387501,-16.050001,-49.612503
1782299689645,-0.031107,0.976272,8.923935,-0.204916,-0.07093,0.038957,-16.387501,-16.050001,-49.612503
1782299689650,-0.031107,0.976272,8.923935,-0.204916,-0.07093,0.038957,-17.025002,-15.900001,-48.712502
1782299689653,-0.090927,0.926022,9.002899,-0.176205,-0.067265,0.045065,-17.025002,-15.900001,-48.712502
1782299689659,-0.090927,0.926022,9.002899,-0.176205,-0.067265,0.045065,-17.587502,-16.78125,-48.862503
1782299689661,-0.090927,0.926022,9.002899,-0.159712,-0.063599,0.049341,-17.587502,-16.78125,-48.862503
1782299689662,-0.131605,0.856631,9.019648,-0.159712,-0.063599,0.049341,-17.587502,-16.78125,-48.862503
1782299689676,-0.162712,0.808774,9.194324,-0.155436,-0.061156,0.052396,-16.050001,-16.481251,-50.081253
1782299689679,-0.133998,0.806381,9.447963,-0.14444,-0.054436,0.054228,-16.050001,-16.481251,-50.081253
1782299689680,-0.133998,0.806381,9.447963,-0.14444,-0.054436,0.054228,-16.368752,-15.750001,-50.381252
1782299689686,-0.055035,0.815953,9.677674,-0.103512,-0.040997,0.056061,-16.368752,-15.750001,-50.381252
1782299689688,-0.055035,0.815953,9.677674,-0.103512,-0.040997,0.056061,-17.8125,-15.150001,-48.393753
1782299689695,-0.040678,0.856631,9.802101,-0.03815,-0.020228,0.058504,-17.8125,-15.150001,-48.393753
1782299689700,-0.040678,0.856631,9.802101,-0.03815,-0.020228,0.058504,-17.887501,-16.762501,-49.331253
1782299689704,-0.004786,0.940379,9.75903,0.034543,0.001763,0.059726,-17.887501,-16.762501,-49.331253
1782299689710,-0.004786,0.940379,9.75903,0.034543,0.001763,0.059726,-18.487501,-16.612501,-49.162502
1782299689712,-0.004786,0.940379,9.75903,0.093797,0.007261,0.059726,-18.487501,-16.612501,-49.162502
1782299689713,-0.0335,1.004985,9.644175,0.093797,0.007261,0.059726,-18.487501,-16.612501,-49.162502
1782299689719,-0.0335,1.004985,9.644175,0.093797,0.007261,0.059726,-16.368752,-16.78125,-49.331253
1782299689722,0.004786,1.050449,9.63939,0.122508,0.005428,0.059726,-16.368752,-16.78125,-49.331253
1782299689730,0.07657,1.057628,9.756637,0.118843,0.009704,0.060337,-16.5375,-16.200001,-49.462502
1782299689739,0.07657,1.057628,9.756637,0.099906,0.009704,0.062169,-16.5375,-16.200001,-49.462502
1782299689740,0.129212,1.052842,9.957634,0.099906,0.009704,0.062169,-17.868752,-16.462502,-49.631252
1782299689747,0.160319,1.028914,10.223238,0.082802,0.009094,0.065835,-17.868752,-16.462502,-49.631252
1782299689749,0.160319,1.028914,10.223238,0.082802,0.009094,0.065835,-17.868752,-16.462502,-49.631252
1782299689756,0.160319,1.028914,10.223238,0.084023,0.000541,0.068889,-17.868752,-16.462502,-49.631252
1782299689757,0.177069,0.947558,10.515162,0.084023,0.000541,0.068889,-17.868752,-16.462502,-49.631252
1782299689759,0.177069,0.947558,10.515162,0.084023,0.000541,0.068889,-17.306252,-17.38125,-47.962502
1782299689764,0.191426,0.859023,10.77598,0.104182,-0.008622,0.073165,-17.306252,-17.38125,-47.962502
1782299689782,0.256032,0.672383,11.134903,0.168934,-0.004956,0.090269,-16.40625,-17.1,-47.8125
1782299689789,0.256032,0.672383,11.134903,0.168934,-0.004956,0.090269,-17.043751,-15.900001,-47.943752
1782299689790,0.289532,0.57667,11.268901,0.193368,0.009094,0.100043,-17.043751,-15.900001,-47.943752
1782299689799,0.323031,0.480957,11.357436,0.211083,0.009094,0.110428,-17.737501,-16.9125,-48.712502
1782299689807,0.382852,0.425922,11.41247,0.225133,0.004207,0.119591,-17.737501,-16.9125,-48.712502
1782299689808,0.382852,0.425922,11.41247,0.225133,0.004207,0.119591,-17.868752,-18.243752,-48.131252
1782299689815,0.449851,0.375673,11.474684,0.250179,0.005428,0.12631,-17.868752,-18.243752,-48.131252
1782299689818,0.449851,0.375673,11.474684,0.250179,0.005428,0.12631,-17.118752,-16.03125,-50.081253
1782299689824,0.459422,0.454636,11.493826,0.281944,0.022533,0.129364,-17.118752,-16.03125,-50.081253
1782299689829,0.459422,0.454636,11.493826,0.281944,0.022533,0.129364,-16.5,-16.63125,-49.781254
1782299689833,0.382852,0.634098,11.450756,0.32165,0.035972,0.125088,-16.5,-16.63125,-49.781254
1782299689839,0.382852,0.634098,11.450756,0.32165,0.035972,0.125088,-16.387501,-17.081251,-48.562504
1782299689841,0.277567,0.837488,11.35265,0.363799,0.02803,0.124478,-16.387501,-17.081251,-48.562504
1782299689849,0.277567,0.837488,11.35265,0.363799,0.02803,0.124478,-16.78125,-18.262501,-49.331253
1782299689850,0.198604,0.957129,11.256938,0.387623,0.019478,0.126921,-16.78125,-18.262501,-49.331253
1782299689861,0.138784,1.01695,11.21626,0.379071,0.017035,0.132419,-16.35,-17.53125,-49.331253
1782299689867,0.0335,1.198804,11.244973,0.340587,0.016424,0.136084,-16.35,-17.53125,-49.331253
1782299689869,0.0335,1.198804,11.244973,0.340587,0.016424,0.136084,-17.118752,-17.512501,-48.581253
1782299689889,-0.143569,1.493121,11.223438,0.249568,-0.004345,0.137917,-16.9125,-18.69375,-49.200001
1782299689890,-0.143569,1.493121,11.223438,0.249568,-0.004345,0.137917,-17.137501,-18.262501,-47.512501
1782299689893,-0.172283,1.397408,11.08944,0.176875,-0.019617,0.136084,-17.137501,-18.262501,-47.512501
1782299689898,-0.172283,1.397408,11.08944,0.176875,-0.019617,0.136084,-17.85,-18.543751,-48.581253
1782299689901,-0.177069,1.162912,11.029619,0.07425,-0.048939,0.132419,-17.85,-18.543751,-48.581253
1782299689909,-0.177069,1.162912,11.029619,0.07425,-0.048939,0.132419,-17.512501,-19.275002,-48.600002
1782299689910,-0.179462,0.839881,11.244973,-0.047923,-0.083147,0.124478,-17.512501,-19.275002,-48.600002
1782299689920,-0.179462,0.839881,11.244973,-0.163988,-0.101473,0.114093,-17.512501,-19.275002,-48.600002
1782299689921,-0.131605,0.411565,11.713966,-0.163988,-0.101473,0.114093,-17.925001,-16.78125,-47.8125
1782299689927,-0.078963,-0.019143,12.223637,-0.254396,-0.09964,0.105541,-17.925001,-16.78125,-47.8125
1782299689928,-0.078963,-0.019143,12.223637,-0.254396,-0.09964,0.105541,-17.775002,-17.38125,-47.212502
1782299689936,-0.043071,-0.378066,12.525134,-0.289826,-0.097808,0.103097,-17.775002,-17.38125,-47.212502
1782299689938,-0.043071,-0.378066,12.525134,-0.289826,-0.097808,0.103097,-17.643751,-16.050001,-47.793751
1782299689944,-0.066999,-0.650848,12.568204,-0.240957,-0.110636,0.107373,-17.643751,-16.050001,-47.793751
1782299689949,-0.066999,-0.650848,12.568204,-0.240957,-0.110636,0.107373,-19.6875,-17.775002,-48.581253
1782299689952,-0.191426,-0.760918,12.419849,-0.107177,-0.117966,0.118369,-19.6875,-17.775002,-48.581253
1782299689959,-0.191426,-0.760918,12.419849,-0.107177,-0.117966,0.118369,-18.65625,-18.243752,-47.0625
1782299689961,-0.39003,-0.624527,11.876678,0.084023,-0.102695,0.134862,-18.65625,-18.243752,-47.0625
1782299689968,-0.39003,-0.624527,11.876678,0.084023,-0.102695,0.134862,-18.637501,-18.243752,-47.831253
1782299689969,-0.39003,-0.624527,11.876678,0.288052,-0.067265,0.150134,-18.637501,-18.243752,-47.831253
1782299689970,-0.535992,-0.287139,11.204295,0.288052,-0.067265,0.150134,-18.637501,-18.243752,-47.831253
1782299689987,-0.832702,0.476172,9.318751,0.50552,-0.030002,0.155632,-16.050001,-19.012501,-47.831253
1782299689989,-0.832702,0.476172,9.318751,0.50552,-0.030002,0.155632,-17.56875,-17.8125,-48.581253
1782299689995,-0.832702,0.476172,9.318751,0.453597,-0.069097,0.156853,-17.56875,-17.8125,-48.581253
1782299689996,-0.904487,0.875773,8.813865,0.453597,-0.069097,0.156853,-17.56875,-17.8125,-48.581253
1782299689998,-0.904487,0.875773,8.813865,0.453597,-0.069097,0.156853,-18.206251,-17.8125,-47.8125
1782299690004,-0.904487,0.875773,8.813865,0.330813,-0.109414,0.155021,-18.206251,-17.8125,-47.8125
1782299690005,-1.026521,1.079163,8.57219,0.330813,-0.109414,0.155021,-18.206251,-17.8125,-47.8125
1782299690010,-1.026521,1.079163,8.57219,0.330813,-0.109414,0.155021,-19.518751,-18.675001,-48.431252
1782299690013,-1.074377,1.115055,8.452549,0.168323,-0.144234,0.156853,-19.518751,-18.675001,-48.431252
1782299690019,-1.074377,1.115055,8.452549,0.168323,-0.144234,0.156853,-20.15625,-17.775002,-48.112503
1782299690021,-1.074377,1.115055,8.452549,-0.008217,-0.185161,0.162962,-20.15625,-17.775002,-48.112503
1782299690022,-1.09352,1.007378,8.500406,-0.008217,-0.185161,0.162962,-20.15625,-17.775002,-48.112503
1782299690029,-1.09352,1.007378,8.500406,-0.008217,-0.185161,0.162962,-18.768751,-19.125,-47.681252
1782299690030,-1.043271,0.794417,8.825829,-0.160933,-0.237085,0.177012,-18.768751,-19.125,-47.681252
1782299690040,-1.043271,0.794417,8.825829,-0.260504,-0.265796,0.198392,-18.768751,-19.125,-47.681252
1782299690041,-0.933201,0.51685,9.302002,-0.260504,-0.265796,0.198392,-19.200001,-19.125,-47.981251
1782299690047,-0.933201,0.51685,9.302002,-0.284328,-0.250524,0.219772,-19.200001,-19.125,-47.981251
1782299690048,-0.799203,0.239282,9.689639,-0.284328,-0.250524,0.219772,-19.200001,-19.125,-47.981251
1782299690049,-0.799203,0.239282,9.689639,-0.284328,-0.250524,0.219772,-18.806252,-18.393751,-47.212502
1782299690056,-0.715454,0.045464,9.629818,-0.244011,-0.209596,0.23932,-18.806252,-18.393751,-47.212502
1782299690059,-0.715454,0.045464,9.629818,-0.244011,-0.209596,0.23932,-20.625,-18.375,-46.912502
1782299690065,-0.631705,-0.021535,9.318751,-0.178648,-0.180885,0.255203,-20.625,-18.375,-46.912502
1782299690070,-0.631705,-0.021535,9.318751,-0.178648,-0.180885,0.255203,-19.800001,-17.512501,-45.243752
1782299690073,-0.624527,0.069392,8.998112,-0.115119,-0.16317,0.268642,-19.800001,-17.512501,-45.243752
1782299690083,-0.234497,-0.131605,8.859329,-0.063806,-0.160727,0.273529,-19.425001,-17.793751,-47.512501
1782299690089,-0.234497,-0.131605,8.859329,-0.063806,-0.160727,0.273529,-20.71875,-19.5375,-47.831253
1782299690090,-0.20339,0.021535,8.579369,-0.042426,-0.136903,0.272918,-20.71875,-19.5375,-47.831253
1782299690100,-0.196211,0.22014,8.342479,-0.051589,-0.133849,0.264976,-21.543751,-17.775002,-47.0625
1782299690107,-0.167498,0.239282,8.084054,-0.105345,-0.142401,0.243596,-21.543751,-17.775002,-47.0625
1782299690109,-0.167498,0.239282,8.084054,-0.105345,-0.142401,0.243596,-19.35,-16.931252,-45.84375
1782299690116,-0.200997,0.241675,8.141482,-0.181703,-0.190048,0.219772,-19.35,-16.931252,-45.84375
1782299690118,-0.200997,0.241675,8.141482,-0.181703,-0.190048,0.219772,-20.775002,-18.525002,-47.0625
1782299690124,-0.179462,0.289532,8.297016,-0.253785,-0.237085,0.19656,-20.775002,-18.525002,-47.0625
1782299690129,-0.179462,0.289532,8.297016,-0.253785,-0.237085,0.19656,-21.393751,-18.075001,-46.612503
1782299690134,-0.145962,0.260818,8.431014,-0.312428,-0.2548,0.173958,-21.393751,-18.075001,-46.612503
1782299690139,-0.145962,0.260818,8.431014,-0.312428,-0.2548,0.173958,-20.475,-18.525002,-46.762501
1782299690144,-0.074178,0.282353,8.490835,-0.361908,-0.265185,0.156243,-20.475,-18.525002,-46.762501
1782299690150,-0.074178,0.282353,8.490835,-0.361908,-0.265185,0.156243,-21.225,-18.956251,-46.3125
1782299690153,0.023928,0.31346,8.464513,-0.393673,-0.29695,0.14036,-21.225,-18.956251,-46.3125
1782299690161,0.193819,0.308674,8.517155,-0.404668,-0.323828,0.134251,-20.231251,-16.462502,-47.043751
1782299690170,0.346959,0.358923,8.55544,-0.390619,-0.314054,0.134251,-19.78125,-16.03125,-47.493752
1782299690178,0.433101,0.464208,8.560226,-0.34236,-0.267017,0.140971,-19.78125,-16.03125,-47.493752
1782299690179,0.433101,0.464208,8.560226,-0.34236,-0.267017,0.140971,-22.237501,-15.1125,-46.875
1782299690193,0.399601,0.667598,8.454942,-0.170096,-0.07093,0.158686,-22.35,-16.44375,-46.743752
1782299690198,0.399601,0.667598,8.454942,-0.170096,-0.07093,0.158686,-22.200001,-15.843751,-47.643753
1782299690201,0.394816,0.784846,8.294623,-0.085797,0.034139,0.165406,-22.200001,-15.843751,-47.643753
1782299690208,0.394816,0.784846,8.294623,-0.085797,0.034139,0.165406,-23.175001,-15.262501,-45.975002
1782299690210,0.358923,0.868595,8.208481,-0.027154,0.104999,0.159908,-23.175001,-15.262501,-45.975002
1782299690219,0.294317,0.868595,8.344872,-0.027154,0.104999,0.159908,-23.175001,-15.262501,-45.975002
1782299690220,0.294317,0.868595,8.344872,0.002778,0.136153,0.14769,-21.900002,-16.143751,-47.193752
1782299690227,0.294317,0.87338,8.574583,-0.000887,0.148371,0.125699,-21.900002,-16.143751,-47.193752
1782299690228,0.294317,0.87338,8.574583,-0.000887,0.148371,0.125699,-21.900002,-16.143751,-47.193752
1782299690236,0.327817,0.851845,8.799509,-0.018602,0.137375,0.092102,-21.900002,-16.143751,-47.193752
1782299690239,0.327817,0.851845,8.799509,-0.018602,0.137375,0.092102,-22.200001,-16.143751,-46.893753
1782299690245,0.358923,0.815953,8.940685,-0.036317,0.101334,0.057893,-22.200001,-16.143751,-46.893753
1782299690251,0.358923,0.815953,8.940685,-0.036317,0.101334,0.057893,-22.106251,-16.743752,-44.925003
1782299690253,0.370888,0.739382,9.069897,-0.039982,0.068347,0.025517,-22.106251,-16.743752,-44.925003
1782299690261,0.370888,0.739382,9.069897,-0.039982,0.068347,0.025517,-22.25625,-16.1625,-45.375
1782299690262,0.39003,0.681954,9.153646,-0.021045,0.05613,-0.003804,-22.25625,-16.1625,-45.375
1782299690269,0.39003,0.681954,9.153646,-0.021045,0.05613,-0.003804,-22.59375,-14.38125,-46.125
1782299690270,0.368495,0.66999,9.139289,0.01805,0.060406,-0.030071,-22.59375,-14.38125,-46.125
1782299690280,0.368495,0.66999,9.139289,0.073639,0.0769,-0.05023,-22.59375,-14.38125,-46.125
1782299690281,0.358923,0.70349,9.098611,0.073639,0.0769,-0.05023,-22.387501,-17.043751,-44.925003
1782299690296,0.301496,0.940379,9.03879,0.195201,0.114162,-0.069777,-21.581251,-15.993751,-47.493752
1782299690299,0.301496,0.940379,9.03879,0.195201,0.114162,-0.069777,-22.25625,-14.812501,-46.575001
1782299690304,0.301496,0.940379,9.03879,0.248957,0.148371,-0.072221,-22.25625,-14.812501,-46.575001
1782299690305,0.260818,1.088734,8.998112,0.248957,0.148371,-0.072221,-22.25625,-14.812501,-46.575001
1782299690309,0.260818,1.088734,8.998112,0.248957,0.148371,-0.072221,-22.35,-16.44375,-47.043751
1782299690313,0.205783,1.196411,8.9024,0.281333,0.182579,-0.074053,-22.35,-16.44375,-47.043751
1782299690319,0.205783,1.196411,8.9024,0.281333,0.182579,-0.074053,-21.31875,-17.493752,-44.925003
1782299690322,0.148355,1.282553,8.892828,0.281333,0.212512,-0.075275,-21.31875,-17.493752,-44.925003
1782299690329,0.148355,1.282553,8.892828,0.281333,0.212512,-0.075275,-22.06875,-16.743752,-45.993752
1782299690330,0.086142,1.311267,8.981363,0.252011,0.219842,-0.075275,-22.06875,-16.743752,-45.993752
1782299690340,0.0,1.337588,9.249359,0.208029,0.210679,-0.075886,-20.775002,-15.150001,-45.356251
1782299690347,0.0,1.337588,9.249359,0.168934,0.192964,-0.07833,-20.775002,-15.150001,-45.356251
1782299690348,-0.031107,1.28016,9.610675,0.168934,0.192964,-0.07833,-22.181252,-18.075001,-46.143753
1782299690356,-0.021535,1.189233,9.955242,0.14511,0.180136,-0.085049,-22.181252,-18.075001,-46.143753
1782299690359,-0.021535,1.189233,9.955242,0.14511,0.180136,-0.085049,-22.35,-17.475,-45.993752
1782299690365,-0.009571,1.119841,10.201703,0.134114,0.16181,-0.097877,-22.35,-17.475,-45.993752
1782299690370,-0.009571,1.119841,10.201703,0.134114,0.16181,-0.097877,-22.21875,-17.625,-45.393753
1782299690374,0.007178,1.031307,10.366807,0.133503,0.121493,-0.114371,-22.21875,-17.625,-45.393753
1782299690379,0.007178,1.031307,10.366807,0.133503,0.121493,-0.114371,-22.368752,-16.743752,-46.293751
1782299690382,0.007178,1.031307,10.366807,0.130449,0.07018,-0.129031,-22.368752,-16.743752,-46.293751
1782299690393,0.047856,0.753739,10.85255,0.12434,0.029863,-0.137583,-22.556252,-16.143751,-45.375
1782299690400,0.107677,0.643669,11.189938,0.124951,0.005428,-0.144914,-21.4125,-18.075001,-46.143753
1782299690408,0.148355,0.564706,11.474684,0.139001,-0.004345,-0.153466,-21.4125,-18.075001,-46.143753
1782299690409,0.148355,0.564706,11.474684,0.139001,-0.004345,-0.153466,-21.431252,-16.893751,-46.893753
1782299690417,0.179462,0.557528,11.606289,0.170155,0.007261,-0.160185,-21.431252,-16.893751,-46.893753
1782299690419,0.179462,0.557528,11.606289,0.170155,0.007261,-0.160185,-22.331251,-18.50625,-45.693752
1782299690425,0.210568,0.62692,11.601504,0.207418,0.031696,-0.169348,-22.331251,-18.50625,-45.693752
1782299690429,0.210568,0.62692,11.601504,0.207418,0.031696,-0.169348,-23.1,-17.456251,-46.293751
1782299690434,0.217747,0.830309,11.498612,0.239183,0.035361,-0.180344,-23.1,-17.456251,-46.293751
1782299690439,0.217747,0.830309,11.498612,0.239183,0.035361,-0.180344,-21.6,-17.775002,-45.693752
1782299690443,0.196211,1.06002,11.340686,0.252622,0.01337,-0.18462,-21.6,-17.775002,-45.693752
1782299690449,0.196211,1.06002,11.340686,0.252622,0.01337,-0.18462,-22.06875,-18.225,-44.493752
1782299690451,0.217747,1.246661,11.127725,0.23735,0.004207,-0.180955,-22.06875,-18.225,-44.493752
1782299690461,0.210568,1.366302,10.936299,0.185427,0.010926,-0.173014,-20.868752,-17.493752,-44.925003
1782299690468,0.22014,1.464407,10.840586,0.104182,0.01337,-0.164461,-22.087502,-17.493752,-44.925003
1782299690476,0.153141,1.469193,10.914764,0.006444,0.011537,-0.155909,-22.087502,-17.493752,-44.925003
1782299690478,0.153141,1.469193,10.914764,0.006444,0.011537,-0.155909,-21.50625,-16.9125,-44.325001
1782299690484,0.153141,1.469193,10.914764,-0.103512,0.012148,-0.14919,-21.50625,-16.9125,-44.325001
1782299690485,0.153141,1.354338,11.017655,-0.103512,0.012148,-0.14919,-21.50625,-16.9125,-44.325001
1782299690489,0.153141,1.354338,11.017655,-0.103512,0.012148,-0.14919,-21.168751,-17.643751,-44.625
1782299690497,0.179462,1.071985,11.163617,-0.223852,-0.002513,-0.150412,-21.168751,-17.643751,-44.625
1782299690498,0.179462,1.071985,11.163617,-0.223852,-0.002513,-0.150412,-21.206251,-17.362501,-44.025002
1782299690502,0.20339,0.667598,11.388543,-0.352134,-0.025726,-0.157742,-21.206251,-17.362501,-44.025002
1782299690508,0.20339,0.667598,11.388543,-0.352134,-0.025726,-0.157742,-22.81875,-18.206251,-44.943752
1782299690510,0.227318,0.191426,11.75943,-0.477972,-0.044663,-0.167516,-22.81875,-18.206251,-44.943752
1782299690520,0.253639,-0.334995,12.147068,-0.583041,-0.048328,-0.173014,-21.900002,-17.325001,-46.143753
1782299690529,0.253639,-0.334995,12.147068,-0.636797,-0.042219,-0.166294,-21.900002,-17.325001,-46.143753
1782299690530,0.318245,-0.79681,12.589739,-0.636797,-0.042219,-0.166294,-22.518751,-17.625,-45.09375
1782299690537,0.442672,-1.129412,12.967805,-0.605032,-0.016563,-0.152855,-22.518751,-17.625,-45.09375
1782299690539,0.442672,-1.129412,12.967805,-0.605032,-0.016563,-0.152855,-22.21875,-17.625,-45.09375
1782299690545,0.442672,-1.129412,12.967805,-0.471864,0.020089,-0.13514,-22.21875,-17.625,-45.09375
1782299690546,0.476172,-1.289731,12.934306,-0.471864,0.020089,-0.13514,-22.21875,-17.625,-45.09375
1782299690550,0.476172,-1.289731,12.934306,-0.471864,0.020089,-0.13514,-21.618752,-17.493752,-45.243752
1782299690554,0.464208,-1.20359,12.551454,-0.25745,0.042691,-0.114981,-21.618752,-17.493752,-45.243752
1782299690559,0.464208,-1.20359,12.551454,-0.25745,0.042691,-0.114981,-21.356251,-16.762501,-44.475002
1782299690562,0.464208,-1.20359,12.551454,-0.011882,0.071402,-0.098488,-21.356251,-16.762501,-44.475002
1782299690563,0.399601,-0.89013,11.828822,-0.011882,0.071402,-0.098488,-21.356251,-16.762501,-44.475002
1782299690570,0.399601,-0.89013,11.828822,-0.011882,0.071402,-0.098488,-23.175001,-15.262501,-45.975002
1782299690571,0.306281,-0.457029,10.838193,0.206196,0.121493,-0.089325,-23.175001,-15.262501,-45.975002
1782299690580,0.205783,-0.019143,9.687246,0.328369,0.145316,-0.082606,-22.387501,-17.043751,-44.925003
1782299690589,0.090927,0.428315,8.761223,0.317985,0.086063,-0.074053,-22.275002,-15.8625,-45.075001
1782299690601,0.083749,0.801596,8.397514,0.212916,-0.015952,-0.067945,-21.4125,-16.03125,-43.706253
1782299690605,0.155533,0.976272,8.337694,0.073639,-0.091088,-0.072832,-21.4125,-16.03125,-43.706253
1782299690609,0.155533,0.976272,8.337694,0.073639,-0.091088,-0.072832,-23.0625,-16.1625,-44.006252
1782299690614,0.22014,0.993021,8.407086,-0.070525,-0.101473,-0.089325,-23.0625,-16.1625,-44.006252
1782299690619,0.22014,0.993021,8.407086,-0.070525,-0.101473,-0.089325,-20.793751,-16.63125,-43.256252
1782299690622,0.22014,0.993021,8.407086,-0.196364,-0.086201,-0.111927,-20.793751,-16.63125,-43.256252
1782299690623,0.191426,0.904487,8.608082,-0.196364,-0.086201,-0.111927,-20.793751,-16.63125,-43.256252
1782299690629,0.191426,0.904487,8.608082,-0.196364,-0.086201,-0.111927,-22.931252,-16.012501,-43.40625
1782299690631,0.181855,0.715454,8.876079,-0.286161,-0.072762,-0.13514,-22.931252,-16.012501,-43.40625
1782299690640,0.181855,0.715454,8.876079,-0.333197,-0.062988,-0.157131,-22.931252,-16.012501,-43.40625
1782299690641,0.275175,0.495314,9.187146,-0.333197,-0.062988,-0.157131,-21.956251,-16.1625,-45.075001
1782299690650,0.421137,0.248854,9.534105,-0.338695,-0.031834,-0.180955,-23.231251,-15.712501,-43.706253
1782299690657,0.538385,0.038285,9.806887,-0.314871,0.026809,-0.204168,-23.231251,-15.712501,-43.706253
1782299690659,0.538385,0.038285,9.806887,-0.314871,0.026809,-0.204168,-22.425001,-15.712501,-45.225002
1782299690665,0.538385,0.038285,9.806887,-0.273332,0.073845,-0.227381,-22.425001,-15.712501,-45.225002
1782299690668,0.591027,-0.160319,9.866707,-0.273332,0.073845,-0.227381,-22.425001,-15.712501,-45.225002
1782299690669,0.591027,-0.160319,9.866707,-0.273332,0.073845,-0.227381,-23.212502,-15.262501,-44.90625
1782299690675,0.591027,-0.160319,9.866707,-0.233626,0.0769,-0.251204,-23.212502,-15.262501,-44.90625
1782299690676,0.607777,-0.299103,9.876278,-0.233626,0.0769,-0.251204,-23.212502,-15.262501,-44.90625
1782299690679,0.607777,-0.299103,9.876278,-0.233626,0.0769,-0.251204,-21.675001,-16.012501,-44.925003
1782299690682,0.607777,-0.299103,9.876278,-0.196974,0.050021,-0.270752,-21.675001,-16.012501,-44.925003
1782299690683,0.562313,-0.356531,9.957634,-0.196974,0.050021,-0.270752,-21.675001,-16.012501,-44.925003
1782299690689,0.562313,-0.356531,9.957634,-0.196974,0.050021,-0.270752,-22.59375,-15.1125,-45.356251
1782299690691,0.485743,-0.394816,9.940885,-0.157268,0.015202,-0.284191,-22.59375,-15.1125,-45.356251
1782299690705,0.440279,-0.351745,9.8356,-0.115119,-6.9e-05,-0.286634,-22.03125,-15.13125,-44.006252
1782299690709,0.435494,-0.246461,9.577176,-0.074801,0.005428,-0.281137,-21.337502,-16.012501,-45.975002
1782299690716,0.461815,-0.102891,9.196717,-0.047313,0.021922,-0.265254,-21.337502,-16.012501,-45.975002
1782299690718,0.461815,-0.102891,9.196717,-0.047313,0.021922,-0.265254,-21.337502,-16.012501,-45.975002
1782299690725,0.457029,0.083749,8.811472,-0.036928,0.035361,-0.235933,-21.337502,-16.012501,-45.975002
1782299690729,0.457029,0.083749,8.811472,-0.036928,0.035361,-0.235933,-21.525002,-16.1625,-44.625
1782299690733,0.454636,0.272782,8.474084,-0.033873,0.05613,-0.197448,-21.525002,-16.1625,-44.625
1782299690739,0.454636,0.272782,8.474084,-0.033873,0.05613,-0.197448,-21.675001,-14.981251,-45.675003
1782299690742,0.42353,0.354138,8.227623,-0.032652,0.083008,-0.159575,-21.675001,-14.981251,-45.675003
1782299690748,0.42353,0.354138,8.227623,-0.032652,0.083008,-0.159575,-23.212502,-14.962501,-44.90625
1782299690750,0.392423,0.409173,8.057734,-0.030819,0.100723,-0.129031,-23.212502,-14.962501,-44.90625
1782299690760,0.325424,0.492921,7.914164,-0.032041,0.101334,-0.107651,-22.237501,-16.143751,-46.125
1782299690769,0.246461,0.574277,7.842379,-0.032652,0.074456,-0.094212,-22.237501,-16.143751,-46.125
1782299690770,0.246461,0.574277,7.842379,-0.032652,0.074456,-0.094212,-21.6,-13.06875,-45.337502
1782299690777,0.117248,0.66999,7.806487,-0.033263,0.033528,-0.085049,-21.6,-13.06875,-45.337502
1782299690778,0.117248,0.66999,7.806487,-0.033263,0.033528,-0.085049,-22.950001,-14.681251,-44.15625
1782299690785,0.117248,0.66999,7.806487,-0.028987,-0.001902,-0.080773,-22.950001,-14.681251,-44.15625
1782299690786,0.002393,0.748953,7.75863,-0.028987,-0.001902,-0.080773,-22.950001,-14.681251,-44.15625
1782299690789,0.002393,0.748953,7.75863,-0.028987,-0.001902,-0.080773,-20.962502,-15.000001,-44.456253
1782299690800,-0.066999,0.808774,7.71556,-0.025321,-0.020228,-0.077719,-20.962502,-15.000001,-44.456253
1782299690801,-0.066999,0.808774,7.71556,-0.025321,-0.020228,-0.077719,-22.21875,-12.76875,-45.1875
1782299690807,-0.124427,0.870987,7.703596,-0.030208,-0.025115,-0.072832,-22.21875,-12.76875,-45.1875
1782299690808,-0.124427,0.870987,7.703596,-0.030208,-0.025115,-0.072832,-20.90625,-13.087501,-43.518753
1782299690810,-0.122034,0.909273,7.753845,-0.044258,-0.012898,-0.063058,-20.90625,-13.087501,-43.518753
1782299690820,-0.083749,0.90688,7.883057,-0.065028,0.012148,-0.049619,-22.931252,-14.681251,-44.456253
1782299690829,-0.040678,0.868595,8.079269,-0.093127,0.039026,-0.034958,-21.50625,-13.5375,-43.368752
1782299690837,-0.002393,0.806381,8.344872,-0.122449,0.066515,-0.020908,-21.50625,-13.5375,-43.368752
1782299690838,-0.002393,0.806381,8.344872,-0.122449,0.066515,-0.020908,-23.00625,-13.51875,-43.368752
1782299690845,0.007178,0.734597,8.617653,-0.139553,0.071402,-0.006858,-23.00625,-13.51875,-43.368752
1782299690849,0.007178,0.734597,8.617653,-0.139553,0.071402,-0.006858,-22.44375,-11.887501,-43.96875
1782299690854,0.0,0.653241,8.935899,-0.134055,0.061628,0.002915,-22.44375,-11.887501,-43.96875
1782299690860,0.0,0.653241,8.935899,-0.134055,0.061628,0.002915,-21.525002,-12.7875,-43.368752
1782299690867,0.026321,0.581456,9.170396,-0.104734,0.048189,0.008413,-21.525002,-12.7875,-43.368752
1782299690869,0.026321,0.581456,9.170396,-0.104734,0.048189,0.008413,-22.556252,-13.51875,-43.368752
1782299690870,0.026321,0.581456,9.170396,-0.053421,0.030474,0.010857,-22.556252,-13.51875,-43.368752
1782299690871,0.050249,0.547956,9.306787,-0.053421,0.030474,0.010857,-22.556252,-13.51875,-43.368752
1782299690880,0.105284,0.57667,9.323536,-0.006995,0.015813,0.012078,-23.15625,-13.368751,-43.518753
1782299690889,0.105284,0.57667,9.323536,0.017439,-0.002513,0.016965,-23.15625,-13.368751,-43.518753
1782299690890,0.18664,0.650848,9.254144,0.017439,-0.002513,0.016965,-23.15625,-13.368751,-43.518753
1782299690891,0.18664,0.650848,9.254144,0.017439,-0.002513,0.016965,-22.63125,-14.83125,-44.306252
1782299690897,0.256032,0.708275,9.263716,0.023548,-0.033667,0.023685,-22.63125,-14.83125,-44.306252
1782299690898,0.256032,0.708275,9.263716,0.023548,-0.033667,0.023685,-22.5,-13.950001,-44.90625
1782299690905,0.323031,0.746561,9.361822,0.023548,-0.033667,0.023685,-22.5,-13.950001,-44.90625
1782299690906,0.323031,0.746561,9.361822,0.019272,-0.057491,0.033459,-22.5,-13.950001,-44.90625
1782299690923,0.392423,0.81356,9.53889,0.021104,-0.05688,0.049952,-22.087502,-13.668751,-43.537502
1782299690929,0.392423,0.81356,9.53889,0.021104,-0.05688,0.049952,-21.637501,-14.118751,-43.237503
1782299690931,0.392423,0.918844,9.603497,0.040041,-0.045273,0.053617,-21.637501,-14.118751,-43.237503
1782299690939,0.392423,0.918844,9.603497,0.069974,-0.034889,0.049952,-22.6875,-13.06875,-44.587502
1782299690940,0.382852,0.971486,9.701602,0.069974,-0.034889,0.049952,-22.6875,-13.06875,-44.587502
1782299690950,0.342174,1.0002,9.818851,0.101128,-0.019006,0.046898,-22.237501,-13.51875,-44.137501
1782299690957,0.342174,1.0002,9.818851,0.127395,-0.006789,0.040178,-22.237501,-13.51875,-44.137501
1782299690958,0.327817,0.973879,9.983956,0.127395,-0.006789,0.040178,-22.237501,-13.51875,-44.137501
1782299690959,0.327817,0.973879,9.983956,0.127395,-0.006789,0.040178,-21.46875,-14.718751,-43.087502
1782299690965,0.327817,0.973879,9.983956,0.148164,-0.001291,0.028572,-21.46875,-14.718751,-43.087502
1782299690967,0.323031,0.976272,10.144274,0.148164,-0.001291,0.028572,-21.46875,-14.718751,-43.087502
1782299690969,0.323031,0.976272,10.144274,0.148164,-0.001291,0.028572,-22.387501,-13.06875,-44.587502
1782299690975,0.323031,0.976272,10.144274,0.165268,-0.001902,0.02002,-22.387501,-13.06875,-44.587502
1782299690976,0.358923,1.031307,10.299808,0.165268,-0.001902,0.02002,-22.387501,-13.06875,-44.587502
1782299690980,0.358923,1.031307,10.299808,0.165268,-0.001902,0.02002,-21.6,-13.06875,-45.337502
1782299690984,0.452243,1.040878,10.445771,0.181151,0.001152,0.012078,-21.6,-13.06875,-45.337502
1782299690989,0.452243,1.040878,10.445771,0.181151,0.001152,0.012078,-21.4125,-12.656251,-42.450001
1782299690991,0.452243,1.040878,10.445771,0.198255,0.00665,0.010246,-21.4125,-12.656251,-42.450001
1782299690992,0.552742,0.988236,10.594125,0.198255,0.00665,0.010246,-21.4125,-12.656251,-42.450001
1782299690999,0.552742,0.988236,10.594125,0.198255,0.00665,0.010246,-21.7875,-12.7875,-44.4375
1782299691000,0.662812,0.921237,10.740088,0.212916,0.011537,0.015744,-21.7875,-12.7875,-44.4375
1782299691009,0.741775,0.820738,10.902799,0.215359,0.016424,0.022463,-22.03125,-14.400001,-44.606251
1782299691020,0.701097,0.715454,11.211474,0.212305,0.01337,0.035291,-22.5375,-13.51875,-43.6875
1782299691025,0.701097,0.715454,11.211474,0.218414,0.01398,0.05545,-22.5375,-13.51875,-43.6875
1782299691026,0.62692,0.674776,11.544076,0.218414,0.01398,0.05545,-22.5375,-13.51875,-43.6875
1782299691028,0.62692,0.674776,11.544076,0.218414,0.01398,0.05545,-22.96875,-14.981251,-43.387501
1782299691034,0.574277,0.598206,11.802501,0.242237,0.024976,0.079274,-22.96875,-14.981251,-43.387501
1782299691039,0.574277,0.598206,11.802501,0.242237,0.024976,0.079274,-23.19375,-13.368751,-42.768753
1782299691042,0.574277,0.598206,11.802501,0.278889,0.045135,0.101265,-23.19375,-13.368751,-42.768753
1782299691043,0.5001,0.579063,11.816858,0.278889,0.045135,0.101265,-23.19375,-13.368751,-42.768753
1782299691049,0.5001,0.579063,11.816858,0.278889,0.045135,0.101265,-22.650002,-14.1,-44.587502
1782299691051,0.397209,0.727418,11.749858,0.324704,0.062239,0.117147,-22.650002,-14.1,-44.587502
1782299691059,0.397209,0.727418,11.749858,0.324704,0.062239,0.117147,-25.087502,-14.6625,-43.6875
1782299691060,0.239282,0.947558,11.570397,0.37846,0.07018,0.12631,-25.087502,-14.6625,-43.6875
1782299691070,0.122034,1.122234,11.290436,0.41328,0.067737,0.133641,-22.237501,-14.250001,-43.387501
1782299691077,0.122034,1.122234,11.290436,0.39923,0.043913,0.137917,-22.237501,-14.250001,-43.387501
1782299691078,0.100499,1.198804,10.957835,0.39923,0.043913,0.137917,-22.237501,-14.250001,-43.387501
1782299691079,0.100499,1.198804,10.957835,0.39923,0.043913,0.137917,-22.237501,-14.26875,-43.087502
1782299691086,0.069392,1.241875,10.862121,0.320428,0.004207,0.141582,-22.237501,-14.26875,-43.087502
1782299691089,0.069392,1.241875,10.862121,0.320428,0.004207,0.141582,-22.96875,-13.500001,-44.4375
1782299691095,-0.0335,1.318445,11.012869,0.203142,-0.039165,0.14708,-22.96875,-13.500001,-44.4375
1782299691100,-0.0335,1.318445,11.012869,0.203142,-0.039165,0.14708,-23.306252,-14.250001,-42.618752
1782299691103,-0.0335,1.318445,11.012869,0.088299,-0.07093,0.155632,-23.306252,-14.250001,-42.618752
1782299691104,-0.167498,1.347159,11.307187,0.088299,-0.07093,0.155632,-23.306252,-14.250001,-42.618752
1782299691109,-0.167498,1.347159,11.307187,0.088299,-0.07093,0.155632,-22.25625,-15.000001,-41.868752
1782299691111,-0.167498,1.347159,11.307187,-0.001498,-0.072151,0.169071,-22.25625,-15.000001,-41.868752
1782299691113,-0.253639,1.239482,11.47947,-0.001498,-0.072151,0.169071,-22.25625,-15.000001,-41.868752
1782299691130,-0.253639,1.239482,11.47947,-0.001498,-0.072151,0.169071,-24.225,-13.650001,-43.21875
1782299691131,-0.287139,0.62692,11.38615,-0.146273,-0.062988,0.199614,-22.762501,-13.387501,-41.700001
1782299691137,-0.287139,0.62692,11.38615,-0.223242,-0.058712,0.21122,-22.762501,-13.387501,-41.700001
1782299691138,-0.212961,0.236889,11.57279,-0.223242,-0.058712,0.21122,-24.0,-14.962501,-44.15625
1782299691145,-0.165105,-0.138784,11.895821,-0.289215,-0.04283,0.214275,-24.0,-14.962501,-44.15625
1782299691148,-0.165105,-0.138784,11.895821,-0.289215,-0.04283,0.214275,-24.375002,-13.200001,-43.368752
1782299691154,-0.165105,-0.138784,11.895821,-0.330143,-0.032445,0.209999,-24.375002,-13.200001,-43.368752
1782299691155,-0.114855,-0.454636,12.130317,-0.330143,-0.032445,0.209999,-24.375002,-13.200001,-43.368752
1782299691160,-0.114855,-0.454636,12.130317,-0.330143,-0.032445,0.209999,-22.96875,-13.950001,-44.137501
1782299691163,-0.095713,-0.734597,12.233209,-0.332586,-0.045273,0.198392,-22.96875,-13.950001,-44.137501
1782299691168,-0.095713,-0.734597,12.233209,-0.332586,-0.045273,0.198392,-22.106251,-13.087501,-43.518753
1782299691171,-0.095713,-0.734597,12.233209,-0.286771,-0.071541,0.184342,-22.106251,-13.087501,-43.518753
1782299691172,-0.11007,-0.947558,12.202102,-0.286771,-0.071541,0.184342,-22.106251,-13.087501,-43.518753
1782299691179,-0.11007,-0.947558,12.202102,-0.286771,-0.071541,0.184342,-22.106251,-13.087501,-43.518753
1782299691180,-0.145962,-1.038485,12.036997,-0.183535,-0.079482,0.16846,-22.106251,-13.087501,-43.518753
1782299691190,-0.145962,-1.038485,12.036997,-0.044869,-0.068486,0.156853,-22.106251,-13.087501,-43.518753
1782299691192,-0.210568,-0.930808,11.668502,-0.044869,-0.068486,0.156853,-24.4125,-13.200001,-42.618752
1782299691198,-0.265603,-0.631705,11.005691,0.098684,-0.039165,0.14769,-24.4125,-13.200001,-42.618752
1782299691200,-0.265603,-0.631705,11.005691,0.098684,-0.039165,0.14769,-24.4125,-13.200001,-42.618752
1782299691206,-0.265603,-0.631705,11.005691,0.219025,-0.017174,0.142804,-24.4125,-13.200001,-42.618752
1782299691207,-0.265603,-0.270389,10.237595,0.219025,-0.017174,0.142804,-24.4125,-13.200001,-42.618752
1782299691209,-0.265603,-0.270389,10.237595,0.219025,-0.017174,0.142804,-25.462502,-13.05,-42.768753
1782299691214,-0.265603,-0.270389,10.237595,0.292328,-0.002513,0.139138,-25.462502,-13.05,-42.768753
1782299691216,-0.227318,0.057428,9.550854,0.292328,-0.002513,0.139138,-25.462502,-13.05,-42.768753
1782299691231,-0.198604,0.356531,8.998112,0.253233,0.036582,0.13303,-24.731251,-12.31875,-42.75
1782299691232,-0.205783,0.634098,8.655939,0.253233,0.036582,0.13303,-24.731251,-12.31875,-42.75
1782299691239,-0.205783,0.634098,8.655939,0.253233,0.036582,0.13303,-24.88125,-12.76875,-42.300003
1782299691240,-0.260818,0.823131,8.483655,0.168934,0.039026,0.133641,-24.88125,-12.76875,-42.300003
1782299691250,-0.334995,0.842274,8.498013,0.070584,0.027419,0.136084,-25.012501,-12.31875,-43.21875
1782299691257,-0.404387,0.72024,8.612868,-0.021656,-0.004345,0.14036,-25.012501,-12.31875,-43.21875
1782299691258,-0.404387,0.72024,8.612868,-0.021656,-0.004345,0.14036,-23.212502,-12.337501,-42.75
1782299691266,-0.478565,0.555135,8.785151,-0.097403,-0.050771,0.14769,-23.212502,-12.337501,-42.75
1782299691268,-0.478565,0.555135,8.785151,-0.097403,-0.050771,0.14769,-24.768751,-11.587501,-42.150002
1782299691274,-0.504886,0.380459,8.904792,-0.146883,-0.100251,0.158075,-24.768751,-11.587501,-42.150002
1782299691279,-0.504886,0.380459,8.904792,-0.146883,-0.100251,0.158075,-25.106251,-10.837501,-42.131252
1782299691283,-0.4666,0.22014,8.995719,-0.164599,-0.145455,0.170903,-25.106251,-10.837501,-42.131252
1782299691289,-0.4666,0.22014,8.995719,-0.164599,-0.145455,0.170903,-24.862501,-11.71875,-43.668751
1782299691291,-0.349352,0.086142,8.995719,-0.159712,-0.171722,0.183121,-24.862501,-11.71875,-43.668751
1782299691299,-0.349352,0.086142,8.995719,-0.159712,-0.171722,0.183121,-25.237501,-12.168751,-41.081253
1782299691301,-0.198604,0.035892,8.91915,-0.14444,-0.182718,0.19717,-25.237501,-12.168751,-41.081253
1782299691310,-0.198604,0.035892,8.91915,-0.129779,-0.178442,0.208166,-25.481251,-11.56875,-43.518753
1782299691311,-0.081356,0.007178,8.880865,-0.129779,-0.178442,0.208166,-25.481251,-11.56875,-43.518753
1782299691317,-0.081356,0.007178,8.880865,-0.125503,-0.154618,0.223438,-25.481251,-11.56875,-43.518753
1782299691318,-0.028714,-0.050249,8.947863,-0.125503,-0.154618,0.223438,-24.431252,-11.71875,-43.368752
1782299691330,0.028714,-0.107677,8.990934,-0.143218,-0.096586,0.241764,-24.150002,-11.4375,-42.600002
1782299691334,0.062213,-0.16989,9.050755,-0.181092,-0.032445,0.259479,-24.150002,-11.4375,-42.600002
1782299691339,0.062213,-0.16989,9.050755,-0.181092,-0.032445,0.259479,-25.050001,-11.868751,-42.450001
1782299691343,0.050249,-0.234497,9.282858,-0.212246,0.010315,0.272918,-25.050001,-11.868751,-42.450001
1782299691349,0.050249,-0.234497,9.282858,-0.212246,0.010315,0.272918,-23.418751,-11.00625,-42.28125
1782299691351,0.09332,-0.275175,9.502998,-0.209803,0.039637,0.279637,-23.418751,-11.00625,-42.28125
1782299691359,0.09332,-0.275175,9.502998,-0.209803,0.039637,0.279637,-25.237501,-10.6875,-42.600002
1782299691360,0.088534,-0.270389,9.613068,-0.161544,0.061628,0.275972,-25.237501,-10.6875,-42.600002
1782299691369,0.088534,-0.270389,9.613068,-0.082132,0.07018,0.261922,-25.237501,-10.6875,-42.600002
1782299691370,0.179462,-0.208176,9.383358,-0.082132,0.07018,0.261922,-24.975,-9.95625,-42.28125
1782299691377,0.177069,-0.028714,9.041183,0.000335,0.050021,0.242985,-24.975,-9.95625,-42.28125
1782299691378,0.177069,-0.028714,9.041183,0.000335,0.050021,0.242985,-24.750002,-11.868751,-42.450001
1782299691386,0.172283,0.193819,8.60569,0.068141,0.021311,0.215496,-24.750002,-11.868751,-42.450001
1782299691389,0.172283,0.193819,8.60569,0.068141,0.021311,0.215496,-24.487501,-10.25625,-42.581253
1782299691395,0.162712,0.40678,8.206089,0.107236,-0.02145,0.184953,-24.487501,-10.25625,-42.581253
1782299691400,0.162712,0.40678,8.206089,0.107236,-0.02145,0.184953,-24.468752,-12.187501,-41.550003
1782299691403,0.124427,0.583849,7.88545,0.108458,-0.074595,0.151356,-24.468752,-12.187501,-41.550003
1782299691409,0.124427,0.583849,7.88545,0.108458,-0.074595,0.151356,-25.668751,-10.6875,-43.350002
1782299691411,0.124427,0.583849,7.88545,0.071195,-0.123464,0.118369,-25.668751,-10.6875,-43.350002
1782299691412,0.124427,0.732204,7.713167,0.071195,-0.123464,0.118369,-25.668751,-10.6875,-43.350002
1782299691419,0.124427,0.732204,7.713167,0.071195,-0.123464,0.118369,-23.19375,-8.962501,-41.8125
1782299691420,0.143569,0.79681,7.701203,0.008887,-0.157062,0.09088,-23.19375,-8.962501,-41.8125
1782299691438,0.198604,0.825524,8.079269,-0.083354,-0.177831,0.046898,-24.937502,-11.7375,-41.53125
1782299691439,0.198604,0.825524,8.079269,-0.083354,-0.177831,0.046898,-26.475,-10.2375,-42.28125
1782299691446,0.229711,0.792024,8.366408,-0.085797,-0.165003,0.024907,-26.475,-10.2375,-42.28125
1782299691449,0.229711,0.792024,8.366408,-0.085797,-0.165003,0.024907,-26.025002,-10.2375,-42.28125
1782299691455,0.265603,0.765703,8.586547,-0.06686,-0.139957,0.002915,-26.025002,-10.2375,-42.28125
1782299691460,0.265603,0.765703,8.586547,-0.06686,-0.139957,0.002915,-26.062502,-8.925,-42.262501
1782299691463,0.265603,0.765703,8.586547,-0.037539,-0.12041,-0.021519,-26.062502,-8.925,-42.262501
1782299691464,0.282353,0.772882,8.727724,-0.037539,-0.12041,-0.021519,-26.062502,-8.925,-42.262501
1782299691469,0.282353,0.772882,8.727724,-0.037539,-0.12041,-0.021519,-26.00625,-10.2375,-42.581253
1782299691472,0.299103,0.787239,8.825829,-0.005163,-0.114301,-0.04351,-26.00625,-10.2375,-42.581253
1782299691479,0.299103,0.787239,8.825829,-0.005163,-0.114301,-0.04351,-25.106251,-8.775001,-43.931252
1782299691480,0.303888,0.799203,8.892828,0.030878,-0.100251,-0.063058,-25.106251,-8.775001,-43.931252
1782299691489,0.303888,0.799203,8.892828,0.073639,-0.067265,-0.080162,-25.106251,-8.775001,-43.931252
1782299691491,0.334995,0.818345,8.923935,0.073639,-0.067265,-0.080162,-25.012501,-9.225,-41.8125
1782299691497,0.334995,0.818345,8.923935,0.117621,-0.023282,-0.099099,-25.012501,-9.225,-41.8125
1782299691498,0.318245,0.818345,8.88565,0.117621,-0.023282,-0.099099,-25.012501,-9.225,-41.8125
1782299691499,0.318245,0.818345,8.88565,0.117621,-0.023282,-0.099099,-25.706251,-9.95625,-42.581253
1782299691506,0.318245,0.818345,8.88565,0.147553,0.017646,-0.112538,-25.706251,-9.95625,-42.581253
1782299691508,0.315853,0.825524,8.823436,0.147553,0.017646,-0.112538,-25.706251,-9.95625,-42.581253
1782299691509,0.315853,0.825524,8.823436,0.147553,0.017646,-0.112538,-26.231251,-9.806251,-40.912502
1782299691515,0.291924,0.868595,8.871293,0.156105,0.046967,-0.118647,-26.231251,-9.806251,-40.912502
1782299691520,0.291924,0.868595,8.871293,0.156105,0.046967,-0.118647,-25.931252,-9.075001,-41.662502
1782299691523,0.291924,0.868595,8.871293,0.149997,0.061017,-0.119257,-25.931252,-9.075001,-41.662502
1782299691524,0.260818,0.945165,8.957434,0.149997,0.061017,-0.119257,-25.931252,-9.075001,-41.662502
1782299691538,0.210568,1.038485,9.07229,0.140834,0.052465,-0.113149,-25.275002,-8.475,-43.331253
1782299691539,0.210568,1.038485,9.07229,0.140834,0.052465,-0.113149,-26.493752,-8.90625,-43.03125
1782299691540,0.210568,1.038485,9.07229,0.142056,0.040859,-0.102764,-26.493752,-8.90625,-43.03125
1782299691541,0.193819,1.112663,9.208681,0.142056,0.040859,-0.102764,-26.493752,-8.90625,-43.03125
1782299691549,0.198604,1.143769,9.280466,0.155495,0.035972,-0.091769,-26.925001,-10.087501,-42.431252
1782299691558,0.172283,1.165305,9.321144,0.168934,0.039637,-0.081384,-26.925001,-10.087501,-42.431252
1782299691559,0.172283,1.165305,9.321144,0.168934,0.039637,-0.081384,-26.043751,-9.20625,-42.581253
1782299691566,0.153141,1.17009,9.34268,0.165879,0.035972,-0.075275,-26.043751,-9.20625,-42.581253
1782299691569,0.153141,1.17009,9.34268,0.165879,0.035972,-0.075275,-25.06875,-8.94375,-40.443752
1782299691575,0.131605,1.129412,9.577176,0.140834,0.019478,-0.07161,-25.06875,-8.94375,-40.443752
1782299691579,0.131605,1.129412,9.577176,0.140834,0.019478,-0.07161,-25.706251,-9.95625,-42.581253
1782299691583,0.098106,1.07677,9.945671,0.108458,0.001152,-0.072221,-25.706251,-9.95625,-42.581253
1782299691588,0.098106,1.07677,9.945671,0.108458,0.001152,-0.072221,-23.625,-10.125,-41.681252
1782299691591,0.098106,1.07677,9.945671,0.091965,-0.014119,-0.076497,-23.625,-10.125,-41.681252
1782299691592,0.074178,1.007378,10.316558,0.091965,-0.014119,-0.076497,-23.625,-10.125,-41.681252
1782299691599,0.074178,1.007378,10.316558,0.091965,-0.014119,-0.076497,-26.6625,-9.056251,-42.431252
1782299691600,0.112463,0.940379,10.594125,0.098073,-0.016563,-0.083827,-26.6625,-9.056251,-42.431252
1782299691610,0.112463,0.940379,10.594125,0.118843,-0.013508,-0.099099,-26.6625,-9.056251,-42.431252
1782299691611,0.174676,0.882952,10.77598,0.118843,-0.013508,-0.099099,-24.356251,-9.075001,-43.181252
1782299691619,0.212961,0.81356,10.902799,0.134114,-0.003124,-0.114371,-24.393751,-9.825001,-41.681252
1782299691627,0.267996,0.725025,11.034404,0.134725,0.000541,-0.130864,-24.393751,-9.825001,-41.681252
1782299691629,0.267996,0.725025,11.034404,0.134725,0.000541,-0.130864,-24.937502,-9.95625,-43.03125
1782299691645,0.224925,0.531207,11.546469,0.143277,0.01398,-0.17057,-25.931252,-9.806251,-40.912502
1782299691650,0.224925,0.531207,11.546469,0.143277,0.01398,-0.17057,-25.931252,-9.806251,-40.912502
1782299691652,0.153141,0.538385,11.639789,0.174431,0.045745,-0.195005,-25.931252,-9.806251,-40.912502
1782299691658,0.153141,0.538385,11.639789,0.174431,0.045745,-0.195005,-25.593752,-9.806251,-41.681252
1782299691660,0.122034,0.660419,11.498612,0.216581,0.075067,-0.214552,-25.593752,-9.806251,-41.681252
1782299691670,0.191426,0.859023,11.249759,0.253233,0.092171,-0.226159,-24.31875,-9.356251,-44.25
1782299691679,0.246461,1.021735,11.070297,0.274613,0.104388,-0.228602,-24.31875,-9.356251,-44.25
1782299691680,0.246461,1.021735,11.070297,0.274613,0.104388,-0.228602,-25.593752,-9.806251,-41.681252
1782299691686,0.246461,1.021735,11.070297,0.27217,0.12638,-0.227991,-25.593752,-9.806251,-41.681252
1782299691687,0.31346,1.134198,10.943477,0.27217,0.12638,-0.227991,-25.593752,-9.806251,-41.681252
