ts,ax,ay,az,gx,gy,gz,mx,my,mz
1774511845474,-2.777274,3.1172507,9.155427,-0.27122417,-0.0061086523,-0.095294975,-3.12,-17.699999,-40.559998
1774511845501,-2.3654714,3.1124623,10.218452,-0.028099801,-0.376293,-0.02443461,-2.82,-17.16,-40.32
1774511845527,-2.1978772,3.2034419,9.677363,0.15027285,-0.042760566,-0.065973446,-3.24,-17.22,-40.2
1774511845551,-2.231396,3.4045548,8.8777,0.22235495,0.26511553,-0.010995574,-4.5,-17.22,-39.54
1774511845576,-2.4037786,3.3039982,8.350976,0.1685988,0.37140608,-0.062308256,-4.44,-17.1,-39.36
1774511845601,-3.1364043,3.1172507,7.8386164,-0.119729586,0.042760566,0.07819075,-4.2599998,-16.8,-39.18
1774511845626,-2.5953147,3.2273839,7.8769236,-0.28710666,-0.70005155,0.14782938,-3.78,-16.859999,-38.94
1774511845650,-2.2409728,3.083732,8.868123,-0.3359759,-1.2864822,0.09162979,-3.78,-16.92,-39.78
1774511845669,-2.2888567,2.767697,8.8777,-0.30543262,-1.1594223,0.07941248,-3.78,-16.92,-39.78
1774511845689,-2.0207062,2.6240451,8.130709,-0.3567453,-0.9468411,0.19181168,-4.2,-16.74,-40.02
1774511845709,-1.7046716,2.753332,8.226477,-0.47891834,-0.91751957,0.3042109,-4.56,-16.08,-39.78
1774511845730,-1.2497733,2.7006595,8.901642,-0.55833083,-1.0238101,0.35308012,-6.7799997,-15.9,-39.719997
1774511845750,-0.94810385,2.303222,9.390059,-0.5290093,-1.105666,0.35308012,-8.099999,-16.02,-39.6
1774511845770,-0.29209262,2.327164,9.255983,-0.47891834,-0.98837996,0.33353242,-8.099999,-16.02,-39.6
1774511845790,0.019153614,2.336741,9.232041,-0.453262,-0.9370673,0.26511553,-10.44,-14.94,-40.26
1774511845811,0.37349546,2.3080103,9.854534,-0.41416663,-0.88453287,0.21991149,-11.639999,-14.94,-39.84
1774511845831,1.0103531,1.9153614,10.247183,-0.36774087,-0.79779,0.07819075,-13.559999,-14.46,-39.899998
1774511845851,0.21547815,2.4947581,9.672575,-0.36041048,-0.46181414,-0.015882496,-14.639999,-14.7,-39.12
1774511845871,0.05746084,1.8243817,9.02614,-0.50335294,-0.43004912,0.029321533,-15.059999,-14.16,-39.12
1774511845892,-0.34955344,2.1547816,9.605537,-0.6426302,-0.4605924,0.061086524,-14.5199995,-12.96,-39.239998
1774511845911,-0.038307227,1.7286136,10.654198,-0.66339964,-0.63163465,0.13439035,-14.16,-12.84,-39.12
1774511845931,0.18195933,1.4939818,11.51611,-0.45204028,-0.56077427,0.15393804,-14.82,-12.719999,-39.899998
1774511845952,0.4357447,1.3694834,10.491392,-0.20158553,-0.25534168,0.16493362,-15.48,-12.84,-39.84
1774511845972,0.7613561,1.541866,9.950302,-0.06963864,-0.14782938,0.15882497,-16.5,-13.139999,-39.54
1774511845993,0.92416185,1.6903064,10.089166,-0.029321533,-0.058643065,0.10873401,-16.56,-12.84,-39.48
1774511846014,0.24899697,1.661576,10.160992,0.058643065,0.095294975,0.05131268,-16.8,-12.9,-39.239998
1774511846034,0.12928689,1.484405,9.878476,0.15515977,0.09040806,0.087964594,-16.98,-13.259999,-39.48
1774511846054,0.36870706,1.4939818,9.844957,0.26633725,0.081855945,0.14049901,-16.98,-12.96,-39.719997
1774511846075,0.58897364,1.6184803,9.385271,0.3494149,0.12950343,0.12461651,-16.68,-13.08,-40.02
1774511846096,0.521936,1.757344,8.973468,0.33841935,0.096516706,0.087964594,-16.44,-12.66,-40.14
1774511846118,0.34955344,1.6807296,8.848969,0.2284636,0.05375614,0.06719518,-16.26,-12.599999,-40.32
1774511846138,0.37349546,1.7142484,8.954314,0.009773844,0.09162979,0.12217305,-16.44,-13.259999,-40.02
1774511846158,0.22505496,1.5945383,9.141062,-0.057421334,0.10262536,0.16982053,-16.44,-13.2,-39.42
1774511846178,0.1388637,1.6998832,9.155427,-0.13072516,0.08674286,0.2003638,-16.26,-13.0199995,-39.18
1774511846198,0.45968673,1.7286136,8.99741,-0.19914207,0.089186326,0.19058995,-15.78,-13.08,-38.82
1774511846218,0.4261679,1.6807296,8.983045,-0.38728857,0.0012217305,0.17837265,-15.42,-12.42,-39.059998
1774511846239,0.5793968,1.5993267,8.6574335,-0.6585127,-0.12705997,0.15027285,-15.66,-12.059999,-39.42
1774511846260,0.6368576,1.7238252,9.284714,-0.70249504,0.10873401,0.08307768,-15.78,-12.0,-39.3
1774511846281,0.6799533,1.6280571,9.260772,-0.79412484,0.04153884,0.056199603,-16.5,-11.639999,-39.18
1774511846301,0.4405331,1.2689269,8.954314,-0.87964594,0.039095376,0.08674286,-16.8,-11.34,-39.66
1774511846321,0.45010993,0.9864111,9.217676,-0.9993755,0.057421334,0.12583824,-16.68,-10.92,-39.899998
1774511846342,0.45489833,0.6703765,9.56723,-0.8723156,0.23335053,0.16615535,-16.68,-10.2,-40.379997
1774511846362,0.45968673,0.79487497,11.123461,-0.4728097,0.63285637,0.21991149,-17.039999,-9.719999,-40.739998
1774511846382,0.15801731,0.7661445,9.739613,-0.28955013,0.5155703,0.31520647,-17.039999,-9.0,-40.62
1774511846403,-0.10534488,0.6703765,10.170568,-0.20647246,0.41172317,0.2846632,-17.22,-8.34,-40.98
1774511846424,0.11971009,0.7661445,9.787497,-0.06963864,0.3726278,0.2003638,-17.4,-8.099999,-41.04
1774511846445,-0.110133275,0.79487497,9.303867,0.008552114,0.19303341,0.20158553,-16.5,-7.02,-41.46
1774511846466,-0.047884032,0.7422025,9.3661175,-0.02565634,0.015882496,0.24312437,-16.74,-7.2,-41.94
1774511846487,-0.01436521,0.7134721,10.228029,0.008552114,-0.16126843,0.2761111,-16.08,-6.8399997,-41.76
1774511846508,0.22984336,0.80924016,10.141838,0.18448131,0.02687807,0.2321288,-15.719999,-6.6,-41.94
1774511846529,-0.02873042,0.7757214,9.739613,0.204029,0.2919936,0.08674286,-15.78,-6.7799997,-41.64
1774511846550,0.2681506,0.5315128,8.7292595,0.1282817,0.27855456,-0.14538592,-15.48,-6.72,-41.34
1774511846571,-0.51714754,0.29688102,9.208099,0.20891592,-0.50335294,-0.16982053,-15.96,-6.8999996,-41.76
1774511846593,-0.47884035,1.1875241,10.022128,0.25411993,-0.8014552,0.013439035,-16.199999,-6.8399997,-41.94
1774511846614,-0.04309563,1.1779473,10.28549,0.28955013,-0.6426302,0.12339478,-16.8,-7.3199997,-42.059998
1774511846636,0.40701428,0.45010993,9.610326,0.31520647,-0.33964106,0.081855945,-17.16,-7.2599998,-41.1
1774511846657,0.15801731,0.30166942,9.653421,0.31764993,-0.37018433,-0.02687807,-17.52,-7.62,-40.98
1774511846679,-0.090979666,0.4213795,10.103531,0.33108896,-0.31642818,0.043982297,-18.119999,-7.7999997,-40.86
1774511846700,0.11971009,0.60812724,10.309433,0.35063666,-0.20891592,0.2321288,-17.88,-7.56,-40.739998
1774511846721,0.6512229,1.0390835,10.304645,0.37995818,0.062308256,0.3494149,-18.18,-8.4,-40.92
1774511846741,0.9528923,1.7429788,9.911995,0.41172317,0.50701815,0.118507855,-18.24,-9.0,-40.079998
1774511846762,0.6512229,1.7621324,9.471462,0.32253686,0.6768387,-0.10751228,-18.119999,-9.12,-40.02
1774511846783,0.82360536,0.7230489,9.064447,0.25289822,0.84421575,-0.38973203,-18.359999,-9.66,-39.96
1774511846804,0.39743748,1.5658079,9.476251,0.2003638,1.0152581,-0.6365216,-17.82,-9.9,-40.62
1774511846826,-0.641646,1.7477672,9.811439,0.28099802,0.97249746,-0.6927212,-17.039999,-9.66,-41.52
1774511846845,-1.1683705,1.9297266,9.3182335,0.33353242,1.1569787,-0.5644395,-16.02,-9.9,-41.579998
1774511846865,-1.6089035,2.1499932,8.690952,0.27122417,1.3573426,-0.35796702,-14.639999,-9.719999,-41.94
1774511846886,-2.111686,2.2601264,8.1402855,0.14049901,1.0494665,-0.06963864,-13.38,-9.54,-41.76
1774511846907,-1.8579005,2.2888567,7.8625584,-0.07696902,0.27488935,0.09285152,-12.54,-10.08,-41.76
1774511846928,-1.1923125,1.6711528,8.403648,-0.29565877,-0.19303341,-0.013439035,-11.34,-10.44,-42.0
1774511846949,-1.0007763,1.283292,8.623915,-0.39828414,-0.34574974,-0.095294975,-10.8,-10.5,-42.12
1774511846970,-1.1204864,1.1204864,9.179369,-0.52778757,-0.3726278,-0.10751228,-10.38,-10.8,-42.42
1774511846991,-0.80445176,0.9864111,9.854534,-0.5534439,-0.2773328,-0.05375614,-10.139999,-10.559999,-42.18
1774511847012,-0.5506664,0.81402856,10.01734,-0.52290064,-0.02321288,0.014660766,-10.559999,-10.08,-42.42
1774511847033,-0.59376204,0.60812724,9.3182335,-0.50579643,0.14294247,0.030543262,-10.559999,-9.96,-42.54
1774511847053,-0.5602432,0.6703765,8.676587,-0.6560693,0.073303826,-0.08674286,-10.5,-9.24,-42.36
1774511847073,-0.7517793,0.7661445,8.671799,-0.8894198,0.06841691,-0.118507855,-10.38,-7.44,-42.42
1774511847093,-1.1492168,0.8523358,9.054871,-1.0555751,-0.009773844,-0.16493362,-10.38,-6.7799997,-42.12
1774511847114,-1.7238252,0.62728083,9.514558,-1.065349,-0.1441642,-0.2565634,-10.74,-6.24,-42.36
1774511847134,-1.661576,0.33039984,9.457097,-1.0714576,-0.10751228,-0.09162979,-10.8,-5.3399997,-42.96
1774511847155,-0.6799533,-0.31603462,9.730036,-1.0885619,-0.35063666,0.14294247,-11.16,-4.92,-43.559998
1774511847175,-0.30645782,-0.56982,9.294291,-1.1252137,-0.09407325,0.15760323,-11.7,-4.2599998,-43.559998
1774511847196,-0.7086837,-0.6607997,8.868123,-1.1655309,-0.17470746,0.13439035,-12.12,-3.48,-43.26
1774511847218,-0.7517793,-0.4405331,9.32781,-1.1093313,-0.5717699,0.04520403,-12.84,-3.3,-42.84
1774511847240,-0.1436521,-0.01436521,10.596737,-0.675617,-0.57787853,-0.2406809,-13.139999,-1.9799999,-42.6
1774511847261,0.01436521,-0.11971009,10.931925,-0.3481932,-0.2443461,-0.13805555,-13.98,-1.5,-42.84
1774511847281,-1.5562311,-1.2497733,10.850522,-0.3481932,-0.2443461,-0.13805555,-14.7,-0.9,-43.02
1774511847302,-2.4277205,-1.541866,10.869676,0.54611355,-0.3042109,1.1643091,-14.82,0.29999998,-42.719997
1774511847323,-1.364695,-1.4652514,10.649409,0.77946407,-0.625526,1.2315043,-15.48,0.0,-42.18
1774511847343,0.80445176,-0.4165911,10.649409,0.7257079,-0.6426302,0.79901177,-15.299999,0.96,-41.879997
1774511847364,0.7469909,-0.9528923,9.3421755,0.625526,-0.47647488,0.28221974,-15.299999,1.3199999,-41.28
1774511847385,0.2825158,-1.6950948,8.920795,0.19181168,-0.32498032,0.062308256,-15.96,0.59999996,-41.399998
1774511847406,0.30645782,-1.5131354,9.208099,-0.24801129,-0.058643065,0.039095376,-16.02,0.78,-41.1
1774511847427,0.05746084,-0.7565677,9.92636,-0.41783184,0.18081611,-0.037873644,-16.38,0.12,-40.8
1774511847448,-0.48362875,-0.51714754,9.983821,-0.37507126,0.6976081,-0.11362094,-16.5,-0.42,-40.92
1774511847470,-0.5554548,-0.7613561,9.030929,-0.34574974,1.065349,-0.29810223,-16.98,-1.02,-40.92
1774511847491,-0.25857377,-0.4213795,9.428367,-0.2773328,1.2486086,-0.44959682,-16.68,-0.96,-41.399998
1774511847513,-0.8379706,-0.39264908,9.710882,0.103847094,1.8533652,-0.5021312,-15.839999,-0.65999997,-41.879997
1774511847534,-0.33518824,-0.4405331,8.805874,0.3848451,1.8387043,-0.7049385,-12.78,0.17999999,-42.059998
1774511847555,-1.2258313,-0.21547815,10.275913,0.70371675,-0.28955013,-0.7684685,-11.639999,-0.12,-42.78
1774511847577,-0.545878,0.16280572,10.979809,0.874759,-0.2602286,-0.9077458,-10.559999,-0.12,-42.6
1774511847598,-0.21068975,0.033518825,10.304645,1.2168436,0.312763,-1.1557571,-9.84,-0.96,-42.84
1774511847620,-0.7326257,-0.05267244,8.901642,1.5088371,0.14660765,-1.3744467,-9.599999,-1.8,-42.719997
1774511847641,-1.5945383,-0.14844051,9.332599,1.5699236,-0.50701815,-1.3976597,-8.76,-2.58,-42.3
1774511847661,-1.4460979,-0.1436521,9.313444,1.319469,-0.6096435,-0.40561453,-8.4,-4.02,-42.18
1774511847682,-1.2162545,0.4213795,8.690952,0.80756384,-0.5363397,-0.02687807,-8.099999,-5.22,-41.399998
1774511847702,-0.50278234,1.0869676,8.384495,0.2284636,-0.27122417,-0.07452556,-8.099999,-6.54,-41.28
1774511847722,-0.04309563,1.4173675,8.293514,-0.21868975,-0.065973446,-0.22113322,-8.28,-7.8599997,-40.739998
1774511847743,-0.33518824,1.340753,8.791509,-0.46792278,0.0842994,-0.2724459,-8.5199995,-8.76,-40.739998
1774511847763,-0.7038953,1.1109096,8.963891,-0.5900958,0.047647487,-0.2003638,-8.4,-8.639999,-41.16
1774511847784,-0.6464345,1.1252748,9.677363,-0.5900958,0.09040806,-0.16737708,-8.04,-7.8599997,-41.04
1774511847804,-1.0390835,0.8331822,10.563218,-0.45081854,0.029321533,-0.14172074,-8.16,-7.3799996,-41.219997
1774511847824,-1.3982137,0.93373865,10.793061,-0.1685988,-0.21502456,-0.12095132,-8.16,-6.8999996,-41.1
1774511847846,-1.5753847,1.3599066,10.453085,0.12095132,-0.27977628,-0.018325957,-8.16,-6.6,-41.28
1774511847869,-1.6041151,1.2880806,10.457873,0.2919936,-0.40683624,0.16737708,-8.28,-6.2999997,-41.399998
1774511847890,-1.5993267,1.5705963,10.175357,0.408058,-0.3494149,0.33108896,-8.639999,-6.12,-41.28
1774511847912,-1.3120226,2.2170308,9.749189,0.54000485,-0.36896262,0.37018433,-9.24,-6.72,-41.46
1774511847934,-0.9624691,2.4516625,8.944737,0.5131268,-0.33475417,0.2125811,-10.38,-7.62,-41.04
1774511847955,-1.1779473,2.3175871,8.465898,0.29565877,-0.30665436,0.07941248,-10.26,-7.56,-40.98
1774511847975,-1.3024458,2.3511062,8.887277,0.13805555,-0.3213151,0.10751228,-10.32,-7.62,-40.68
1774511847996,-0.8619126,2.054225,8.901642,0.18936823,-0.27977628,0.13439035,-10.62,-7.08,-40.8
1774511848017,-0.5793968,2.1164744,8.652645,0.24801129,-0.25534168,0.10873401,-10.92,-7.2,-40.44
1774511848039,-0.59376204,2.0207062,8.734048,0.27855456,-0.3567453,0.09040806,-11.5199995,-7.3799996,-40.379997
1774511848060,-0.9959879,2.2457612,9.26556,0.3811799,-0.43004912,0.1160644,-11.88,-7.44,-40.2
1774511848081,-0.50278234,2.72939,9.514558,0.21624629,0.03176499,0.2687807,-12.24,-8.4,-40.079998
1774511848103,-1.1683705,3.2465374,9.361329,0.06352998,0.02443461,0.59131753,-12.48,-8.88,-39.96
1774511848122,-0.17717093,2.7006595,8.734048,-0.13683382,0.20525073,0.45937067,-12.599999,-9.599999,-40.02
1774511848143,0.35434186,2.767697,9.074024,-0.17592919,0.2919936,0.31887165,-12.48,-9.3,-40.02
1774511848164,-0.2777274,3.1747115,9.433155,-0.10873401,0.1160644,0.41783184,-12.9,-9.78,-40.079998
1774511848185,0.01436521,2.5474305,9.572019,-0.05131268,-0.08307768,0.44959682,-12.599999,-9.54,-40.26
1774511848206,0.33039984,2.7102363,9.988609,-0.018325957,-0.12583824,0.41905355,-12.78,-9.059999,-39.899998
1774511848227,0.4261679,2.1452048,9.653421,0.009773844,0.029321533,0.3921755,-13.08,-8.94,-39.96
1774511848248,0.05267244,1.412579,10.012551,0.09162979,0.3323107,0.36774087,-12.66,-8.16,-39.54
1774511848271,-0.62728083,2.135628,10.500969,0.26633725,0.79168135,0.46181414,-12.96,-7.74,-39.12
1774511848293,0.095768064,2.6623523,10.0508585,0.2406809,1.1606439,0.5729916,-12.3,-7.3799996,-39.0
1774511848313,-0.11971009,2.4516625,8.810662,-0.06719518,1.4746287,0.3555236,-11.7,-7.02,-39.719997
1774511848334,-1.532289,1.9009962,8.738836,-0.5009095,1.5711454,0.3323107,-10.679999,-6.8399997,-40.5
1774511848355,-2.0254946,1.2689269,10.060435,-0.61208695,1.1594223,0.6401868,-9.719999,-6.42,-41.04
1774511848377,-1.9009962,1.8195933,11.540052,-0.3494149,0.8735373,0.829555,-9.0,-6.42,-41.82
1774511848398,-1.3455414,2.4468741,10.376471,0.04153884,0.829555,0.74036866,-8.4,-6.6,-42.059998
1774511848420,-1.1252748,1.4508862,9.437943,0.06963864,0.7489208,0.408058,-7.44,-5.8199997,-42.239998
1774511848441,-1.2162545,0.79966336,9.203311,-0.12217305,0.46303585,0.32375857,-6.2999997,-4.92,-42.48
1774511848462,-1.6424223,0.2777274,10.333375,0.14782938,-0.50579643,0.2773328,-5.7599998,-4.3199997,-43.32
1774511848482,-0.93373865,-0.16759412,11.358093,0.15882497,-0.14049901,0.1600467,-5.52,-3.72,-43.559998
1774511848503,-1.0486604,-0.1340753,11.128249,0.02076942,0.593761,-0.030543262,-5.8199997,-4.14,-44.04
1774511848523,-1.6903064,-0.80924016,10.132261,-0.119729586,0.65484756,-0.06719518,-6.48,-4.5,-43.8
1774511848543,-1.6903064,-0.80924016,10.132261,-0.17470746,0.63041294,0.034208454,-6.0,-4.3199997,-43.32
1774511848564,-2.528277,-0.90500826,9.121908,-0.16737708,0.25778514,0.2565634,-5.8799996,-4.74,-43.02
1774511848584,-1.8291701,-0.21547815,9.931149,0.081855945,-0.02321288,0.33964106,-5.52,-4.7999997,-42.66
1774511848605,-1.8291701,-0.21547815,9.931149,0.31764993,0.37507126,0.16126843,-5.52,-5.3399997,-43.02
1774511848625,-2.5905263,0.05746084,9.639056,0.4801401,0.40561453,-0.052534413,-5.8199997,-5.52,-42.96
1774511848647,-2.873042,-0.770933,8.259995,0.20769419,0.52412236,-0.14782938,-5.58,-4.98,-43.559998
1774511848668,-2.8634653,-0.5506664,8.355764,-0.04886922,0.6291912,-0.058643065,-5.46,-4.56,-44.04
1774511848688,-2.4468741,-1.0247183,9.069236,-0.13316862,0.6988298,0.015882496,-4.44,-4.3199997,-43.98
1774511848709,-1.9728222,0.0047884034,8.082825,-0.032986723,0.72082096,0.02321288,-4.38,-4.98,-43.92
1774511848730,-2.873042,-0.08619126,8.12592,-0.02687807,0.30298916,-0.1600467,-3.48,-4.8599997,-42.78
1774511848752,-2.8491,-0.61770403,8.556877,-0.12950343,0.1441642,-0.18325958,-2.9399998,-4.92,-42.6
1774511848773,-3.53863,-0.8810662,9.509769,-0.1563815,0.09407325,-0.064751714,-2.22,-4.38,-42.54
1774511848796,-2.753332,0.019153614,7.656657,-0.12339478,-0.036651913,0.089186326,-1.02,-3.8999999,-43.86
1774511848816,-2.4995465,0.17238252,9.184157,-0.14905111,-0.6731735,-0.032986723,-0.9,-3.9599998,-43.8
1774511848836,-2.7246015,-0.08619126,9.844957,-0.07452556,-0.5925393,-0.06719518,-1.74,-4.14,-44.219997
1774511848856,-2.7341783,-0.18674773,9.471462,-0.047647487,-0.43860126,-0.004886922,-2.34,-4.38,-44.52
1774511848876,-2.4229321,0.15801731,9.749189,-0.15149458,-0.2565634,0.018325957,-3.1799998,-4.44,-44.219997
1774511848897,-2.3127987,0.25857377,9.725247,-0.21502456,0.010995574,-0.056199603,-3.54,-4.3199997,-43.92
1774511848938,-2.336741,0.20590134,9.11712,-0.11484267,-0.6084218,-0.105068825,-3.6,-4.3199997,-43.739998
1774511848959,-1.9393034,0.038307227,9.605537,-0.056199603,-0.8002335,-0.13927728,-4.38,-4.68,-43.32
1774511848979,-2.0590134,0.15322891,9.423578,-0.057421334,-0.75625116,-0.10995574,-4.7999997,-4.68,-43.68
1774511848999,-1.8722657,0.50757074,8.604761,0.08552113,-1.5577064,-0.035430185,-5.64,-4.5,-43.32
1774511849019,-1.7190368,0.46447513,8.226477,0.04153884,-1.8509218,0.06963864,-6.6,-4.74,-43.02
1774511849039,-1.3311762,0.33518824,9.672575,0.04153884,-1.8509218,0.06963864,-7.02,-4.08,-43.44
1774511849060,-0.842759,0.6512229,10.395624,0.103847094,-1.3243558,0.05131268,-8.34,-4.14,-42.84
1774511849080,0.076614454,1.1204864,10.773908,0.096516706,-0.88208944,-0.22479841,-9.54,-3.72,-42.3
1774511849101,-0.1388637,1.043872,10.342952,0.087964594,-0.7086037,-0.31642818,-11.099999,-4.3199997,-42.3
1774511849120,-0.641646,0.5506664,10.352529,0.12583824,-0.46303585,-0.18325958,-12.36,-4.7999997,-41.399998
1774511849141,-0.7517793,0.6607997,10.486604,0.1441642,-0.26389378,-0.11728613,-14.04,-6.12,-41.04
1774511849161,-0.35913026,1.1683705,10.04607,0.13805555,-0.1685988,-0.22357668,-14.46,-6.66,-40.8
1774511849182,-0.17717093,1.5131354,9.65821,0.0720821,-0.14538592,-0.35063666,-14.759999,-6.72,-40.32
1774511849202,-0.17238252,1.5897499,8.863335,-0.07696902,-0.23335053,-0.46914452,-15.0,-7.02,-40.379997
1774511849223,-0.2681506,1.5849615,8.959103,-0.19058995,-0.24678956,-0.54367006,-14.219999,-6.48,-40.32
1774511849243,-0.22026655,1.3694834,9.361329,-0.27488935,-0.09040806,-0.5546656,-14.4,-6.7799997,-40.32
1774511849264,-0.076614454,1.1587936,9.883265,-0.37873647,0.20769419,-0.52290064,-14.46,-6.54,-40.559998
1774511849285,0.033518825,1.4173675,10.141838,-0.46181414,0.48991394,-0.5143485,-14.639999,-6.8399997,-40.5
1774511849305,0.076614454,1.6903064,10.117896,-0.36774087,0.6206391,-0.63041294,-14.639999,-6.7799997,-40.739998
1774511849325,-0.33039984,1.3934253,9.648633,-0.25411993,0.7367035,-0.784351,-14.34,-6.6,-40.739998
1774511849346,-0.46447513,0.6464345,8.350976,-0.22602014,0.68294734,-0.75747293,-13.86,-6.48,-40.8
1774511849366,-0.6751649,0.6847417,7.809886,-0.38606682,0.080634214,-0.5644395,-12.54,-5.64,-41.1
1774511849387,-0.8619126,1.3215994,8.767567,-0.46303585,-0.6267477,-0.37507126,-11.94,-5.58,-41.34
1774511849406,-0.22505496,1.4987702,9.921572,-0.44348818,-0.96883225,-0.3933972,-12.0,-6.12,-41.399998
1774511849427,0.5650316,0.9720459,10.6637745,-0.31031954,-0.8173377,-0.47403142,-12.0,-6.0,-41.64
1774511849449,0.08619126,0.9911995,10.91756,-0.18325958,-0.26389378,-0.5534439,-12.719999,-6.48,-41.82
1774511849471,-0.19153613,1.0534488,9.672575,-0.07819075,0.32253686,-0.37507126,-13.0199995,-5.7599998,-41.399998
1774511849491,-0.4357447,1.5131354,8.24563,-0.032986723,0.36896262,-0.26267207,-12.84,-4.92,-41.219997
1774511849512,-0.15322891,1.685518,8.221688,-0.10995574,-0.0036651916,-0.2321288,-12.9,-5.04,-40.92
1774511849532,0.10055647,1.4317327,9.107543,-0.12339478,-0.23945917,-0.2602286,-12.719999,-4.68,-41.04
1774511849553,-0.12928689,1.3072342,9.643845,-0.0036651916,-0.23090707,-0.26267207,-12.48,-5.1,-41.64
1774511849574,-0.06703765,1.5801731,9.078813,0.14538592,-0.1966986,-0.22968534,-12.36,-5.4,-42.239998
1774511849594,-0.40222588,1.4939818,8.183381,0.0720821,-0.33964106,-0.2565634,-12.3,-5.64,-41.46
1774511849616,-0.641646,1.8004397,9.040505,-0.09773844,-0.4642576,-0.21013765,-12.599999,-5.46,-40.8
1774511849637,-0.7661445,1.9057846,9.56723,-0.103847094,-0.344528,-0.02565634,-12.66,-5.2799997,-40.2
1774511849659,-0.08140286,1.9919758,10.0508585,-0.07696902,-0.21502456,0.043982297,-13.38,-5.52,-39.899998
1774511849680,-0.21068975,2.1212628,9.706094,-0.032986723,-0.030543262,-0.02443461,-13.86,-5.64,-40.079998
1774511849702,-0.39743748,1.8148049,9.23683,0.039095376,-0.42149702,-0.02076942,-14.16,-5.8799996,-40.14
1774511849723,-0.24420857,1.4030021,9.634268,0.172264,-0.61453044,0.032986723,-14.34,-6.0,-40.02
1774511849744,0.0047884034,1.5610195,10.323798,0.22357668,-0.29810223,0.073303826,-14.16,-5.8799996,-39.66
1774511849765,0.01436521,1.5227122,9.859323,0.24801129,0.09896017,0.19425514,-14.4,-5.7599998,-39.48
1774511849786,-0.22505496,1.6950948,9.576807,0.14172074,0.23945917,0.30176744,-14.219999,-5.7599998,-39.42
1774511849807,-0.11971009,1.757344,10.113108,0.073303826,0.37384954,0.4447099,-14.4,-5.8199997,-39.18
1774511849828,0.090979666,1.9009962,10.46745,0.11728613,0.5839872,0.5412266,-14.639999,-5.94,-39.059998
1774511849849,-0.14844051,1.9201498,10.0508585,0.20158553,0.81000733,0.61086524,-14.5199995,-6.12,-38.82
1774511849870,-0.22026655,1.8052281,9.485827,0.12705997,0.7733554,0.6609562,-15.0,-6.66,-38.52
1774511849891,-0.038307227,1.2976574,10.582372,0.008552114,0.408058,0.64751714,-14.88,-6.96,-39.059998
1774511849913,0.090979666,0.78529817,11.3964,-0.02443461,0.19058995,0.5876524,-14.639999,-7.2,-39.3
1774511849934,0.019153614,0.17717093,11.769896,0.021991149,0.16615535,0.6133087,-14.4,-7.5,-39.719997
1774511849954,-0.110133275,0.01436521,11.449073,0.118507855,0.25045475,0.7110472,-13.98,-6.42,-40.32
1774511849975,0.37828386,-0.22984336,10.749966,0.15515977,0.17470746,0.7623598,-13.62,-5.7599998,-40.44
1774511849995,0.6368576,-0.61291564,10.754754,0.16493362,-0.04520403,0.63163465,-13.32,-5.22,-40.14
1774511850016,0.45489833,-1.0342951,10.357317,0.24678956,-0.037873644,0.48991394,-12.84,-5.16,-40.2
1774511850038,0.38307226,-1.5993267,9.591172,0.27122417,0.0061086523,0.43127087,-12.599999,-5.2799997,-39.66
1774511850059,0.34476504,-1.733402,9.662998,0.19181168,-0.06352998,0.4251622,-12.78,-5.46,-39.48
1774511850079,0.21068975,-1.3694834,9.773131,0.16493362,-0.002443461,0.41783184,-13.32,-5.52,-39.84
1774511850101,-0.08619126,-1.0534488,9.56723,0.13927728,0.09773844,0.344528,-14.04,-5.04,-39.96
1774511850121,-0.2681506,-1.1109096,9.485827,-0.059864793,0.4642576,0.30909783,-14.16,-4.56,-40.5
1774511850141,-0.33039984,-1.1779473,9.490616,-0.06841691,0.5766568,0.31398472,-14.34,-4.8599997,-40.2
1774511850162,-0.2777274,-0.9864111,9.313444,-0.06841691,0.5766568,0.31398472,-13.98,-4.74,-40.62
1774511850183,-0.7422025,-0.7422025,9.035717,0.08674286,0.5876524,0.27488935,-13.2,-4.74,-40.26
1774511850204,-0.4165911,-1.067814,8.973468,0.07452556,0.31520647,0.2565634,-12.96,-4.92,-40.079998
1774511850224,-0.7134721,-0.51235914,8.504205,0.018325957,0.2761111,0.24312437,-12.36,-4.2599998,-40.92
1774511850245,-0.56982,-0.38307226,8.887277,-0.06841691,0.047647487,0.20891592,-12.12,-4.3199997,-40.68
1774511850266,-0.5410896,-0.40222588,9.428367,-0.14172074,0.05375614,0.10629055,-12.0,-4.38,-41.34
1774511850287,-0.7230489,-0.22505496,9.758766,-0.15027285,0.11362094,0.06963864,-12.0,-4.68,-41.219997
1774511850308,-1.2689269,0.06703765,9.964667,-0.13561209,0.33475417,0.036651913,-12.3,-4.92,-41.16
1774511850329,-1.043872,-0.46447513,9.883265,-0.27122417,0.53878313,0.07452556,-11.46,-4.44,-41.04
1774511850350,-1.2306197,-0.31603462,9.44752,-0.2846632,0.6963864,0.0720821,-11.219999,-4.5,-40.559998
1774511850371,-1.316811,-0.29688102,9.457097,-0.23579398,0.5705481,0.095294975,-10.679999,-4.2599998,-40.559998
1774511850392,-1.2162545,-0.06703765,9.888053,-0.16615535,0.4166101,0.04520403,-9.719999,-3.4199998,-40.62
1774511850413,-1.2737153,-0.076614454,9.600749,-0.09773844,0.47403142,-0.030543262,-9.78,-3.1799998,-40.559998
1774511850433,-1.2449849,-0.2777274,9.524135,-0.09040806,0.4373795,-0.13194689,-8.7,-1.9799999,-41.579998
1774511850455,-1.4221559,-0.4357447,9.452309,-0.09285152,0.44837508,-0.18325958,-8.5199995,-2.46,-41.7
1774511850475,-1.5993267,-0.49320555,9.548077,-0.059864793,0.43004912,-0.14660765,-7.7999997,-2.3999999,-42.18
1774511850495,-1.4030021,0.17238252,9.313444,0.032986723,0.41416663,-0.081855945,-7.8599997,-2.9399998,-42.48
1774511850517,-1.6567876,0.842759,9.500193,0.02687807,0.34697145,-0.20525073,-7.62,-2.82,-42.719997
1774511850538,-1.5753847,0.033518825,9.696517,-0.09407325,0.37384954,-0.41783184,-7.2599998,-2.58,-42.66
1774511850559,-1.9393034,0.33518824,9.801862,-0.14782938,0.58032197,-0.46181414,-7.3799996,-2.9399998,-42.899998
1774511850579,-2.336741,0.19153613,10.376471,-0.15882497,0.657291,-0.48624873,-6.96,-3.24,-42.96
1774511850628,-2.954445,0.18195933,9.222465,0.040317107,0.7134906,-0.45937067,-6.3599997,-4.02,-42.78
1774511850652,-3.2752678,-0.08619126,7.2352777,0.14049901,0.16615535,-0.312763,-5.8199997,-3.9599998,-42.84
1774511850671,-2.528277,0.2777274,8.791509,0.0842994,-0.34208453,-0.10873401,-5.7599998,-4.2,-43.2
1774511850691,-2.1643584,0.3878607,9.141062,0.0842994,-0.30298916,-0.12583824,-5.16,-5.1,-43.02
1774511850711,-1.9440918,0.45489833,9.289502,-0.002443461,-0.10751228,-0.24312437,-5.16,-5.1,-43.02
1774511850732,-2.1787236,0.18195933,9.251195,-0.096516706,0.04642576,-0.37995818,-4.68,-5.22,-42.6
1774511850751,-2.5474305,-0.10534488,9.375694,-0.10751228,0.05009095,-0.37507126,-3.9599998,-4.62,-42.36
1774511850772,-2.695871,-0.04309563,8.887277,-0.07941248,-0.14049901,-0.28588495,-3.1799998,-3.78,-41.879997
1774511850796,-2.3223755,0.20590134,9.165004,-0.056199603,-0.5644395,-0.19792034,-3.0,-3.1799998,-41.94
1774511850816,-1.8052281,0.39743748,9.715671,0.047647487,-0.8491027,-0.19303341,-3.36,-3.24,-41.219997
1774511850836,-1.5993267,0.18195933,10.247183,0.056199603,-0.71837753,-0.16615535,-4.02,-3.24,-41.64
1774511850857,-1.4269443,0.4213795,10.19451,0.056199603,-0.29932398,-0.0842994,-4.8599997,-3.4199998,-41.579998
1774511850877,-1.2210429,0.81881696,9.174581,0.0720821,-0.02565634,-0.059864793,-5.52,-3.78,-42.059998
1774511850897,-1.13964,1.2785037,8.504205,0.04642576,-0.21624629,-0.1282817,-5.58,-3.84,-42.78
1774511850918,-1.2066777,1.364695,8.1881695,0.004886922,-0.625526,-0.24556783,-5.8199997,-3.9599998,-42.48
1774511850938,-1.3838485,1.1971009,8.992621,-0.10629055,-0.9944886,-0.31887165,-5.8799996,-3.72,-42.18
1774511850959,-1.5562311,0.91937345,9.998186,-0.15393804,-0.93462384,-0.31520647,-6.18,-3.6,-41.579998
1774511850979,-1.3694834,0.8858546,10.491392,-0.10873401,-0.67073005,-0.2883284,-6.54,-3.48,-40.98
1774511850999,-1.4221559,1.1061212,10.036493,0.06352998,-0.3494149,-0.32986724,-7.02,-3.54,-41.399998
1774511851019,-1.484405,1.1013328,8.983045,0.06352998,-0.3494149,-0.32986724,-7.5,-3.72,-41.28
1774511851040,-1.5897499,1.0534488,8.51857,0.112399206,-0.6731735,-0.27855456,-8.04,-4.44,-41.28
1774511851060,-1.4700398,1.2401965,8.762778,0.13683382,-0.9138544,-0.105068825,-8.88,-5.22,-41.64
1774511851080,-0.90021986,1.508347,9.351752,0.02076942,-0.5729916,-0.21135938,-9.48,-5.8199997,-41.04
1774511851100,-0.45489833,1.5562311,9.232041,0.02076942,-0.5729916,-0.21135938,-10.08,-6.12,-41.16
1774511851120,-0.7326257,1.283292,9.524135,-0.10262536,-0.46792278,-0.3359759,-10.62,-6.0,-40.92
1774511851141,-0.90021986,0.8714894,9.883265,0.04153884,-0.48991394,-0.13927728,-10.98,-6.0,-40.2
1774511851161,-0.58897364,0.7086837,10.275913,0.13194689,-0.3005457,-0.04520403,-11.16,-5.7,-39.84
1774511851182,-0.60333884,0.8379706,10.596737,0.21624629,0.02565634,0.047647487,-11.16,-5.4,-39.3
1774511851203,-0.50278234,0.9959879,10.132261,0.20891592,0.19792034,0.10995574,-11.7,-5.8799996,-39.36
1774511851223,-0.49799395,1.3455414,9.279925,0.11362094,0.1441642,0.13194689,-11.94,-5.7599998,-39.12
1774511851243,-0.51235914,1.5753847,8.901642,0.021991149,-0.029321533,0.15149458,-12.66,-6.0,-39.3
1774511851263,-0.641646,1.6998832,8.882488,-0.02687807,-0.2602286,0.19425514,-12.96,-6.3599997,-39.42
1774511851283,-0.6751649,1.8483237,9.710882,0.010995574,-0.17715092,0.23335053,-12.84,-6.24,-39.239998
1774511851305,-0.5410896,1.5035586,10.860099,0.09040806,0.056199603,0.2773328,-12.96,-6.2999997,-39.48
1774511851326,-0.59376204,1.4508862,10.1226845,0.12339478,0.16371189,0.37140608,-12.599999,-6.24,-39.42
1774511851347,-0.60812724,1.484405,10.457873,0.17837265,-0.12095132,0.45570546,-12.54,-6.06,-38.64
1774511851368,-0.7086837,1.163582,11.36767,0.3005457,-0.23945917,0.54367006,-12.36,-5.58,-38.34
1774511851388,-0.7278373,0.93373865,11.410766,0.45937067,-0.07819075,0.70249504,-12.599999,-5.8799996,-37.92
1774511851409,-0.33039984,0.8619126,10.649409,0.48502702,0.029321533,0.90041536,-12.66,-6.12,-37.739998
1774511851430,-0.29209262,1.388637,10.630256,0.36163223,-0.065973446,0.97127575,-13.0199995,-6.6,-37.98
1774511851450,0.04309563,1.4173675,10.989386,0.31031954,-0.18203785,0.9297369,-13.5,-7.2599998,-37.68
1774511851471,0.24899697,0.8475474,11.032481,0.35430184,-0.1441642,0.8576548,-13.38,-6.8999996,-37.44
1774511851492,0.24899697,0.7326257,10.429143,0.35430184,-0.034208454,0.86132,-14.04,-6.8399997,-37.14
1774511851513,0.5554548,0.48841715,9.830592,0.26389378,-0.02687807,0.81245077,-14.34,-6.66,-37.02
1774511851534,0.8379706,0.07182605,9.916783,0.13927728,-0.12461651,0.68294734,-14.5199995,-5.7599998,-36.899998
1774511851554,0.61291564,-0.46926352,9.873688,0.118507855,-0.10751228,0.52534413,-14.7,-5.8199997,-36.719997
1774511851575,0.60333884,-0.90021986,9.299079,0.11484267,-0.14905111,0.44348818,-14.88,-5.4,-36.239998
1774511851596,0.6655881,-1.0726024,9.787497,0.07819075,-0.30909783,0.35185838,-15.299999,-5.7599998,-36.42
1774511851616,0.5506664,-1.2737153,9.921572,0.1001819,-0.26267207,0.26267207,-16.199999,-6.0,-36.0
1774511851636,0.22026655,-1.3263878,9.619903,0.09773844,-0.12339478,0.23945917,-16.44,-5.8199997,-35.82
1774511851656,-0.01436521,-1.0869676,9.351752,0.07574729,-0.009773844,0.24312437,-17.1,-6.54,-35.7
1774511851677,-0.10534488,-0.6512229,9.141062,0.04886922,0.15515977,0.24190263,-16.92,-6.3599997,-35.28
1774511851698,-0.15801731,-0.21547815,8.743625,-0.03176499,0.44715336,0.12950343,-17.16,-6.7799997,-34.62
1774511851717,-0.25378537,-0.038307227,8.418014,-0.13072516,0.45448375,-0.004886922,-16.859999,-6.66,-34.2
1774511851737,-0.35913026,-0.4213795,8.408437,-0.1563815,0.36041048,-0.042760566,-15.9,-6.24,-33.6
1774511851757,-0.47405192,-0.80445176,9.370906,-0.13805555,0.5143485,0.02321288,-19.56,-7.7999997,-33.899998
1774511851777,-1.2258313,-0.45489833,10.117896,-0.18570304,0.9016371,0.057421334,-19.56,-7.3199997,-33.66
1774511851797,-0.22505496,-0.60333884,9.016563,-0.3323107,0.81000733,-0.05375614,-18.24,-6.54,-35.28
1774511851818,-0.9528923,0.22026655,9.3661175,-0.35063666,0.80756384,-0.103847094,-18.48,-6.06,-35.94
1774511851839,-0.6991069,-0.2825158,9.332599,-0.27000242,0.50823987,-0.172264,-15.719999,-5.52,-34.68
1774511851859,-1.4413095,-0.19632454,9.907207,-0.26389378,0.66828656,-0.10262536,-15.42,-6.06,-35.04
1774511851880,-1.0630256,-0.44532153,9.9790325,-0.21746802,0.7134906,-0.118507855,-13.32,-4.98,-35.579998
1774511851899,-0.9816227,-0.19632454,9.179369,-0.23579398,0.58032197,-0.1441642,-12.36,-4.38,-36.3
1774511851919,-1.1204864,-0.12449849,8.796297,-0.19181168,0.16126843,-0.18936823,-12.24,-4.02,-37.26
1774511851940,-1.1971009,-0.3878607,9.23683,-0.13561209,0.052534413,-0.14294247,-12.3,-3.78,-37.98
1774511851960,-1.163582,-0.49320555,9.854534,-0.11362094,0.2724459,-0.112399206,-12.48,-4.44,-36.899998
1774511851981,-1.0534488,-0.18674773,10.13705,-0.09162979,0.6560693,-0.1685988,-12.179999,-3.9599998,-36.96
1774511852001,-1.0821792,0.33039984,9.720459,-0.089186326,0.70738196,-0.25534168,-11.34,-3.06,-37.5
1774511852022,-1.316811,0.35913026,8.844181,-0.19303341,0.30665436,-0.4092797,-10.44,-3.06,-37.38
1774511852042,-1.6041151,-0.047884032,9.356541,-0.16737708,0.13194689,-0.41905355,-9.12,-2.82,-37.26
1774511852063,-1.9488802,-0.25378537,10.323798,-0.056199603,0.20647246,-0.35430184,-8.7,-2.8799999,-37.38
1774511852083,-1.9201498,-0.19153613,10.85531,-0.056199603,0.5290093,-0.3408628,-9.0,-3.6599998,-37.559998
1774511852104,-1.9871874,0.23942018,10.0987425,-0.08307768,0.8723156,-0.39950588,-8.16,-3.3,-36.899998
1774511852124,-1.6376339,0.21068975,9.514558,-0.095294975,1.0861185,-0.45448375,-7.2,-3.0,-38.52
1774511852144,-2.183512,0.3878607,9.313444,-0.12461651,1.1398746,-0.52534413,-6.42,-2.46,-38.46
1774511852165,-2.8443117,0.17717093,8.1163435,-0.007330383,1.0299188,-0.4447099,-5.8199997,-2.8799999,-38.28
1774511852191,-3.1555579,-0.25378537,6.622362,-0.07574729,-0.22724187,-0.2003638,-5.3399997,-3.9599998,-37.98
1774511852210,-2.3175871,-0.06703765,9.749189,0.07819075,-0.49235737,-0.08307768,-4.38,-4.02,-38.16
1774511852230,-2.1260512,0.12449849,9.572019,0.1563815,-0.26145032,-0.16126843,-4.2599998,-4.2,-37.5
1774511852251,-2.1930888,-0.038307227,9.437943,0.06352998,-0.10751228,-0.22113322,-5.7599998,-3.78,-37.98
1774511852270,-2.3080103,0.08140286,9.356541,0.009773844,0.040317107,-0.25411993,-6.12,-4.38,-37.62
1774511852291,-2.4612393,-0.019153614,8.5473,0.039095376,-0.11362094,-0.26511553,-4.92,-4.2,-37.32
1774511852310,-2.4037786,-0.0047884034,8.322245,0.13683382,-0.72692966,-0.19303341,-4.74,-4.08,-37.26
1774511852330,-2.006341,-0.02873042,8.303091,0.2443461,-1.1777482,-0.112399206,-6.24,-4.98,-36.3
1774511852350,-1.4221559,0.23942018,8.073248,0.34208453,-1.5796975,-0.015882496,-7.3199997,-4.92,-37.14
1774511852370,-1.0486604,0.63206923,7.762002,0.32375857,-1.9181169,-0.02321288,-9.42,-5.58,-38.28
1774511852390,-0.4405331,0.545878,9.385271,0.058643065,-1.8851302,-0.08552113,-10.0199995,-5.7,-38.28
1774511852410,0.50757074,0.22505496,10.778696,-0.05375614,-1.4672983,-0.12950343,-9.66,-5.4,-36.059998
1774511852431,0.31603462,0.18674773,11.137826,-0.23823744,-0.5925393,-0.2406809,-10.8,-4.98,-35.64
1774511852451,-0.18674773,0.50757074,10.965444,-0.37018433,-0.16493362,-0.25167647,-12.96,-6.42,-35.76
1774511852472,-0.50757074,0.78529817,11.142614,-0.37751472,0.13805555,-0.2125811,-13.5,-6.42,-35.28
1774511852491,-0.79966336,1.067814,10.658986,-0.26145032,0.12583824,-0.17715092,-13.98,-6.8399997,-35.579998
1774511852511,-1.0342951,1.6950948,10.16578,-0.12583824,0.07819075,-0.13927728,-13.799999,-6.7799997,-35.219997
1774511852531,-0.7230489,1.8866309,10.036493,0.061086524,-0.07086037,-0.1563815,-13.44,-6.06,-35.399998
1774511852552,-0.82360536,1.8004397,9.667787,0.1685988,-0.10629055,-0.23090707,-13.5,-6.72,-36.0
1774511852571,-0.8619126,1.5466543,9.423578,0.17837265,-0.04886922,-0.2443461,-13.44,-7.02,-35.579998
1774511852591,-0.89543146,1.436521,8.954314,0.18570304,-0.09896017,-0.22357668,-12.9,-6.2999997,-35.82
1774511852612,-0.9528923,1.3311762,8.820239,0.2003638,-0.20891592,-0.14782938,-12.78,-6.2999997,-35.1
1774511852633,-0.9911995,1.7142484,9.165004,0.23823744,-0.3286455,-0.07086037,-12.0,-5.46,-34.5
1774511852654,-0.50278234,1.910573,9.706094,0.27122417,-0.30298916,-0.08674286,-11.759999,-5.16,-34.32
1774511852675,-0.18674773,1.3790601,9.169792,0.23335053,-0.1160644,-0.20280726,-12.42,-5.7599998,-35.52
1774511852695,-1.0869676,1.091756,10.19451,0.12095132,0.061086524,-0.17837265,-12.84,-6.0,-35.52
1774511852716,-1.2641385,1.5179238,10.443508,0.16615535,0.35918877,0.073303826,-12.96,-6.54,-35.64
1774511852737,-0.92895025,1.9488802,9.643845,0.26267207,0.3005457,0.12217305,-12.42,-6.66,-35.1
1774511852758,-0.40222588,2.135628,9.112331,0.30909783,0.09773844,0.034208454,-12.059999,-6.8399997,-34.739998
1774511852779,-0.5267244,1.5035586,8.805874,0.23335053,-0.20158553,-0.02687807,-11.5199995,-7.02,-34.62
1774511852800,-1.3742718,1.9967642,9.720459,0.3494149,-0.5204572,0.13683382,-11.099999,-7.2,-34.2
1774511852821,-0.33997664,1.5897499,9.653421,0.40317106,-0.48991394,0.36163223,-11.219999,-7.44,-33.42
1774511852842,-0.36391866,2.4612393,9.768343,0.15149458,-0.31398472,0.21991149,-11.5199995,-7.5,-33.66
1774511852863,0.11492168,2.111686,9.481039,-0.02076942,-0.17837265,0.16249016,-12.0,-7.5,-33.36
1774511852885,-0.15322891,1.9009962,9.600749,-0.07941248,-0.38973203,0.24678956,-12.599999,-7.3199997,-32.94
1774511852905,0.12449849,0.93852705,10.764331,-0.04642576,-0.7134906,0.32986724,-13.559999,-7.68,-32.94
1774511852926,0.4165911,0.62728083,11.180922,0.057421334,-0.79901177,0.42271876,-14.5199995,-8.16,-32.399998
1774511852947,0.89064306,0.4357447,11.042058,0.10629055,-0.6768387,0.5143485,-14.46,-7.56,-32.52
1774511852969,1.1923125,0.4165911,10.817003,0.056199603,-0.4886922,0.57543504,-14.58,-7.2,-32.34
1774511852990,1.5562311,0.19153613,11.851298,-0.15515977,-0.21868975,0.55833083,-14.7,-6.66,-31.679998
1774511853011,1.7717092,-0.39743748,12.042834,-0.19547687,0.26389378,0.4728097,-15.059999,-6.48,-31.019999
1774511853033,1.1061212,-1.0007763,11.616667,-0.14905111,0.63407815,0.3640757,-15.599999,-7.2599998,-30.72
1774511853055,0.58418524,-0.9768343,10.668563,0.09285152,0.9431759,0.5143485,-16.02,-7.14,-30.599998
1774511853075,0.34955344,-0.39264908,9.107543,0.29443705,1.0152581,0.6291912,-15.599999,-6.6,-31.019999
1774511853095,0.11492168,0.090979666,7.8529816,0.3213151,0.61819565,0.548557,-15.36,-6.48,-31.199999
1774511853116,0.06703765,0.110133275,8.250419,0.20280726,0.015882496,0.31887165,-14.759999,-6.06,-31.619999
1774511853137,0.16280572,-0.50278234,9.26556,0.14049901,-0.1441642,0.14294247,-14.82,-6.3599997,-31.56
1774511853158,-0.04309563,-0.92416185,9.428367,0.12095132,-0.017104227,0.07819075,-15.24,-6.0,-31.8
1774511853180,-0.10055647,-0.9768343,9.533711,0.12217305,0.087964594,0.087964594,-14.88,-5.4,-31.619999
1774511853201,-0.08140286,-0.61770403,9.370906,0.118507855,0.24190263,0.064751714,-14.759999,-5.2799997,-31.8
1774511853222,-0.12449849,-0.5315128,8.796297,0.065973446,0.33108896,-0.035430185,-14.58,-5.7,-31.8
1774511853243,-0.44532153,-0.6991069,8.628703,-0.014660766,0.012217305,-0.08674286,-14.28,-5.46,-31.619999
1774511853264,-0.4357447,-0.7613561,8.7532015,-0.0036651916,-0.07574729,-0.015882496,-14.58,-5.58,-31.56
1774511853285,-0.3878607,-0.770933,9.035717,-0.0012217305,-0.05375614,0.06719518,-14.34,-4.92,-31.859999
1774511853305,0.02873042,-0.37349546,9.572019,-0.02687807,0.06352998,0.12583824,-14.639999,-5.16,-31.5
1774511853326,0.21547815,-0.2873042,10.060435,-0.10629055,0.31642818,0.06352998,-14.94,-5.58,-31.56
1774511853347,-0.22505496,-0.36870706,10.127473,-0.089186326,0.6084218,0.007330383,-14.94,-5.7599998,-31.8
1774511853368,-0.62249243,-0.35913026,9.816227,-0.042760566,0.8417723,0.047647487,-15.24,-6.54,-31.26
1774511853390,-0.6991069,0.6512229,9.605537,-0.02565634,0.93584555,0.09162979,-15.0,-6.2999997,-31.92
1774511853410,-0.20590134,-0.076614454,9.107543,-0.10873401,0.9456194,-0.096516706,-13.32,-4.56,-31.92
1774511853431,-0.7661445,0.7134721,9.44752,-0.09162979,0.88697636,-0.18936823,-12.66,-4.2599998,-32.64
1774511853452,-1.2162545,0.0047884034,9.299079,0.04153884,0.72692966,-0.23945917,-11.639999,-3.8999999,-32.399998
1774511853473,-1.0151415,0.46926352,9.198523,0.1282817,0.6230826,-0.204029,-11.639999,-4.74,-32.7
1774511853495,-1.2210429,-0.02873042,9.299079,0.12339478,0.37507126,-0.25167647,-11.34,-5.4,-32.52
1774511853516,-1.8387469,1.0199299,9.710882,0.052534413,0.35918877,-0.26389378,-10.44,-5.64,-32.94
1774511853537,-1.5035586,0.29688102,9.481039,-0.02687807,0.49480084,-0.37995818,-9.36,-5.22,-32.7
1774511853559,-2.3223755,0.9720459,9.945514,-0.12705997,0.51923543,-0.34574974,-9.3,-5.52,-33.059998
1774511853580,-1.7764976,0.15322891,10.409989,-0.18692477,0.6169739,-0.4166101,-9.059999,-5.58,-33.36
1774511853601,-2.858677,0.8475474,10.481815,-0.096516706,0.68416905,-0.30176744,-8.4,-4.8599997,-33.42
1774511853622,-2.0350714,0.36870706,9.931149,-0.013439035,0.8185594,-0.22602014,-8.5199995,-4.68,-34.079998
1774511853642,-1.8626889,1.091756,9.255983,0.034208454,0.90408057,-0.17592919,-6.7799997,-3.8999999,-33.54
1774511853663,-2.6192567,1.2162545,6.555324,0.095294975,0.78801614,-0.25289822,-6.18,-4.38,-33.6
1774511853683,-2.791639,0.32561144,7.335834,0.081855945,-0.5742133,0.035430185,-5.58,-4.68,-33.48
1774511853703,-2.0207062,0.6991069,9.514558,0.12339478,-0.38362336,-0.029321533,-5.3399997,-4.74,-33.899998
1774511853724,-1.70946,0.7422025,9.346964,-0.040317107,-0.11362094,-0.18203785,-4.7999997,-4.62,-34.2
1774511853743,-1.532289,0.7565677,9.44752,-0.10140363,0.061086524,-0.312763,-5.64,-5.4,-34.38
1774511853764,-1.6519991,0.80445176,9.562442,-0.056199603,0.02321288,-0.39095375,-5.7,-5.4,-34.26
1774511853803,-1.958457,0.7374141,7.8865004,-0.080634214,-0.96761054,-0.28710666,-6.8399997,-6.48,-34.2
1774511853824,-1.5705963,0.94810385,8.925584,-0.009773844,-0.9370673,-0.20158553,-6.48,-5.94,-34.2
1774511853844,-1.0151415,0.8331822,9.801862,0.12217305,-0.6976081,-0.13561209,-6.3599997,-5.52,-34.02
1774511853864,-0.6607997,1.4030021,8.307879,-0.056199603,-0.6719518,-0.18692477,-6.42,-5.2799997,-34.02
1774511853884,-0.770933,1.3024458,8.537724,-0.2883284,-0.8026769,-0.29077184,-6.6,-4.44,-33.42
1774511853904,-0.770933,1.3024458,8.537724,-0.43982297,-1.028697,-0.33841935,-7.5,-4.98,-32.88
1774511853924,-1.0582372,1.115698,9.255983,-0.49846604,-1.2388347,-0.28588495,-7.9199996,-4.98,-32.28
1774511853944,-0.842759,0.9816227,10.429143,-0.4288274,-1.0775663,-0.2602286,-8.16,-4.8599997,-32.28
1774511853964,-0.6751649,1.0630256,11.865664,-0.204029,-0.56199604,-0.25411993,-9.059999,-4.44,-32.1
1774511853984,-0.521936,1.2401965,11.84651,-0.052534413,-0.02687807,-0.24678956,-9.719999,-4.2599998,-32.52
1774511854004,-0.8379706,1.460463,10.658986,-0.0061086523,0.14294247,-0.21868975,-10.26,-4.38,-32.82
1774511854025,-0.89064306,1.6424223,9.155427,0.042760566,0.04886922,-0.18570304,-11.5199995,-4.98,-32.46
1774511854045,-0.79487497,1.7046716,8.954314,0.12095132,-0.118507855,-0.1563815,-11.759999,-5.46,-32.399998
1774511854066,-0.770933,1.6041151,8.868123,0.12095132,-0.07452556,-0.1441642,-11.759999,-5.52,-32.34
1774511854087,-0.91937345,1.4652514,8.7532015,0.059864793,0.008552114,-0.13439035,-12.36,-6.12,-31.38
1774511854108,-1.0390835,1.2066777,8.848969,-0.008552114,-0.0012217305,-0.065973446,-12.179999,-6.12,-31.74
1774511854128,-0.8379706,1.1348516,8.882488,-0.019547688,-0.13316862,0.05131268,-12.3,-6.42,-31.26
1774511854148,-0.9672575,1.316811,9.394848,-0.021991149,-0.32986724,0.13805555,-11.94,-6.2999997,-32.1
1774511854169,-0.6464345,1.3311762,10.218452,0.009773844,-0.37018433,0.20769419,-11.88,-6.66,-31.56
1774511854189,-0.7326257,1.3024458,10.309433,0.05009095,-0.17715092,0.24678956,-11.88,-6.72,-31.32
1774511854209,-0.7517793,1.3982137,10.103531,0.058643065,-0.02443461,0.31520647,-11.94,-6.8399997,-31.439999
1774511854230,-0.82360536,1.6711528,9.883265,0.10629055,-0.002443461,0.40439278,-11.82,-5.94,-31.019999
1774511854250,-0.6512229,1.6903064,10.127473,0.14294247,-0.1001819,0.45937067,-12.0,-5.52,-31.26
1774511854271,-0.49799395,1.7429788,10.443508,0.17348573,-0.105068825,0.49357912,-12.599999,-5.64,-31.199999
1774511854292,-0.5554548,1.8435353,10.682928,0.25534168,-0.13683382,0.50701815,-12.84,-5.8799996,-31.019999
1774511854312,-0.32561144,1.5466543,10.994174,0.22724187,-0.13683382,0.52534413,-13.44,-6.0,-30.96
1774511854333,-0.48841715,1.3694834,11.827356,0.24801129,-0.1282817,0.535118,-13.62,-5.52,-30.779999
1774511854354,-0.33518824,1.163582,11.511322,0.34330627,-0.010995574,0.59498274,-12.719999,-4.02,-29.88
1774511854374,-0.18674773,0.91937345,10.970232,0.32742378,0.081855945,0.6267477,-12.54,-4.38,-29.76
1774511854395,0.07182605,0.9624691,10.625467,0.2125811,0.19425514,0.63041294,-12.9,-4.92,-30.0
1774511854415,0.45968673,0.4213795,10.199299,0.05375614,0.17348573,0.54733527,-13.559999,-5.46,-30.179998
1774511854437,0.4165911,-0.4309563,10.85531,-0.037873644,0.0012217305,0.4654793,-13.92,-5.46,-30.779999
1774511854458,0.10534488,-0.92416185,11.109096,0.111177474,-0.06841691,0.47769663,-14.28,-5.4,-30.72
1774511854479,0.29209262,-0.90979666,10.247183,0.2761111,0.10995574,0.5558874,-13.679999,-4.3199997,-30.66
1774511854500,0.33518824,-0.51714754,8.925584,0.2773328,0.37384954,0.54733527,-13.679999,-4.2,-30.06
1774511854521,0.39264908,-0.33039984,8.00621,0.16982053,0.4202753,0.4373795,-13.62,-4.14,-29.699999
1774511854542,-0.10534488,-0.5315128,8.360553,0.065973446,0.14782938,0.30298916,-13.62,-3.72,-29.82
1774511854562,-0.30645782,-0.7757214,8.863335,0.058643065,-0.12950343,0.25534168,-13.92,-4.14,-29.76
1774511854583,-0.2825158,-0.8858546,9.121908,-0.002443461,-0.10262536,0.17470746,-13.74,-3.8999999,-30.119999
1774511854604,-0.08140286,-0.7086837,9.524135,-0.040317107,0.035430185,0.061086524,-13.38,-3.54,-30.0
1774511854624,-0.1436521,-0.7374141,9.907207,-0.06352998,0.31398472,0.004886922,-13.559999,-3.84,-29.88
1774511854644,0.0047884034,-0.8475474,9.734824,-0.07086037,0.43982297,-0.02443461,-13.62,-3.72,-29.699999
1774511854665,-0.56982,-0.8475474,9.26556,-0.10751228,0.4654793,0.010995574,-13.98,-3.6,-30.0
1774511854686,-0.7134721,-0.22505496,8.834604,-0.12217305,0.2932153,-0.047647487,-13.98,-3.4199998,-30.599998
1774511854706,-0.8283938,-0.23942018,8.992621,-0.10262536,0.052534413,-0.07574729,-13.74,-3.1799998,-30.9
1774511854726,-0.8283938,-0.23942018,8.992621,-0.087964594,-0.07452556,-0.06841691,-13.679999,-3.78,-30.96
1774511854747,-0.7086837,-0.2873042,10.041282,-0.07574729,0.0842994,-0.080634214,-13.799999,-4.68,-30.599998
1774511854768,-0.8858546,0.0,9.457097,-0.05375614,0.13805555,-0.12583824,-13.679999,-4.44,-30.119999
1774511854789,-0.91937345,-0.110133275,9.370906,-0.07086037,0.019547688,-0.16615535,-13.44,-4.2599998,-29.82
1774511854810,-1.0055647,-0.32561144,9.533711,-0.058643065,-0.062308256,-0.14782938,-13.44,-3.8999999,-29.88
1774511854833,-0.7278373,-0.21547815,10.070012,-0.018325957,-0.11484267,-0.10262536,-13.259999,-3.24,-30.06
1774511854854,-0.50757074,-0.110133275,10.199299,0.05497787,0.04153884,-0.119729586,-13.559999,-3.24,-30.42
1774511854875,-0.7182605,-0.11492168,9.370906,0.06963864,0.15882497,-0.172264,-13.08,-2.9399998,-30.24
1774511854896,-0.7278373,-0.15322891,9.399636,0.018325957,0.09407325,-0.1685988,-12.78,-3.48,-30.3
1774511854917,-0.6751649,-0.023942016,9.988609,0.04886922,0.065973446,-0.1563815,-12.78,-3.4199998,-30.3
1774511854938,-0.38307226,0.38307226,9.940725,0.07696902,0.3494149,-0.17592919,-12.9,-3.54,-30.359999
1774511854961,0.009576807,0.6847417,9.792285,0.007330383,0.453262,-0.36896262,-12.599999,-3.36,-30.06
1774511854983,-0.22505496,0.5602432,10.275913,0.087964594,0.77457714,-0.66950834,-12.0,-3.6599998,-30.48
1774511855004,-1.2545617,-0.15801731,10.242394,0.029321533,1.0177015,-0.5021312,-11.4,-3.4199998,-30.42
1774511855025,-1.4556746,0.12928689,9.174581,-0.12461651,0.8405506,-0.46181414,-10.559999,-3.1799998,-30.84
1774511855045,-1.2641385,0.545878,9.088389,-0.14782938,0.5839872,-0.5656612,-9.78,-2.82,-31.679998
1774511855065,-1.0247183,0.8475474,9.691729,-0.010995574,0.48258355,-0.6560693,-9.3,-2.52,-31.56
1774511855086,-2.2026656,0.38307226,9.557653,0.103847094,0.56688297,-0.5290093,-8.34,-3.12,-32.46
1774511855107,-1.982399,0.866701,8.935161,0.09162979,0.68539083,-0.39461896,-7.7999997,-3.36,-31.98
1774511855128,-1.8291701,1.2497733,8.762778,0.06841691,0.65484756,-0.44837508,-7.3799996,-3.4199998,-32.46
1774511855149,-2.2457612,0.9576807,8.700529,0.064751714,0.57543504,-0.5510005,-7.14,-3.4199998,-32.46
1774511855186,-2.5234885,0.20111294,9.921572,0.13072516,-0.34574974,-0.3005457,-6.72,-3.78,-32.219997
1774511855206,-2.1978772,0.25857377,10.113108,0.15882497,-0.16737708,-0.3115413,-7.62,-4.74,-32.04
1774511855226,-2.0159178,0.15801731,9.916783,0.15027285,0.009773844,-0.3848451,-7.74,-4.8599997,-32.82
1774511855247,-2.2266076,0.076614454,9.557653,0.15027285,0.12339478,-0.41416663,-7.74,-5.16,-33.239998
1774511855268,-2.4612393,0.1340753,8.935161,0.119729586,0.15882497,-0.36896262,-8.28,-6.0,-33.6
1774511855298,-2.5570073,0.4261679,8.307879,0.02076942,0.014660766,-0.27366763,-6.48,-5.8799996,-32.64
1774511855318,-2.0973208,0.93852705,8.887277,-0.02565634,-0.2602286,-0.21746802,-5.7599998,-5.4,-31.92
1774511855338,-1.8243817,1.1252748,9.509769,0.04520403,-0.3921755,-0.27488935,-5.8199997,-5.58,-32.16
1774511855359,-2.087744,0.9816227,9.490616,0.07452556,-0.26267207,-0.34208453,-6.24,-5.7599998,-32.399998
1774511855379,-2.1164744,0.8714894,9.524135,-0.014660766,-0.037873644,-0.3005457,-6.42,-6.18,-32.219997
1774511855399,-2.3223755,0.81402856,9.184157,-0.021991149,0.04520403,-0.2773328,-6.06,-6.06,-32.46
1774511855420,-1.9776106,0.79487497,9.303867,0.018325957,-0.042760566,-0.23945917,-5.8199997,-6.06,-32.46
1774511855440,-1.8962077,0.7230489,9.102755,0.12705997,-0.16371189,-0.27366763,-5.46,-5.64,-32.46
1774511855461,-2.0398598,0.45489833,9.112331,0.13927728,-0.17470746,-0.25289822,-4.92,-4.98,-32.52
1774511855481,-1.7764976,0.6512229,9.006987,0.08552113,-0.09896017,-0.16371189,-5.1,-4.92,-32.219997
1774511855501,-1.4652514,0.92895025,8.748413,0.028099801,-0.22968534,-0.22113322,-5.52,-5.4,-32.34
1774511855522,-1.5275006,0.92416185,8.647857,-0.111177474,-0.37751472,-0.25045475,-5.94,-5.8799996,-32.219997
1774511855542,-1.6711528,0.81881696,8.853758,-0.22113322,-0.5766568,-0.25900686,-6.2999997,-6.66,-32.16
1774511855563,-1.6472107,0.91458505,9.442732,-0.25900686,-0.6414085,-0.23823744,-6.72,-6.7799997,-32.399998
1774511855582,-1.6424223,0.9959879,10.31901,-0.20158553,-0.5119051,-0.19058995,-6.66,-6.6,-32.34
1774511855603,-1.532289,1.2018893,10.759542,-0.0842994,-0.29810223,-0.16126843,-6.96,-6.6,-32.16
1774511855623,-1.5945383,1.6232687,10.472239,-0.037873644,-0.16493362,-0.19547687,-7.44,-6.72,-31.98
1774511855644,-1.5035586,1.9393034,10.0987425,-0.004886922,-0.06963864,-0.25900686,-7.2599998,-6.12,-31.32
1774511855664,-1.5035586,2.0111294,9.576807,-0.018325957,-0.06719518,-0.3042109,-7.62,-6.3599997,-31.32
1774511855685,-1.6950948,1.9632454,9.241618,0.018325957,-0.13805555,-0.30787608,-7.8599997,-6.06,-30.96
1774511855740,-1.4508862,1.508347,9.275137,0.06719518,-0.1685988,-0.32986724,-7.8599997,-5.8199997,-31.38
1774511855761,-1.5897499,1.3311762,9.437943,0.062308256,-0.04642576,-0.29565877,-8.16,-6.2999997,-31.619999
1774511855781,-1.661576,1.3551182,8.853758,0.07086037,0.06352998,-0.23090707,-9.059999,-7.2,-31.679998
1774511855801,-1.6711528,1.4556746,8.154651,0.04153884,-0.04153884,-0.18203785,-8.5199995,-7.3799996,-31.56
1774511855822,-1.7669208,1.5801731,9.035717,0.06963864,-0.23090707,-0.06963864,-7.9199996,-6.8999996,-31.619999
1774511855842,-1.6328455,1.4460979,10.237606,0.06963864,-0.23090707,-0.06963864,-7.62,-6.6,-31.32
1774511855862,-1.7477672,1.6089035,9.696517,0.0036651916,0.2602286,-0.017104227,-7.5,-6.3599997,-30.96
1774511855883,-1.9632454,1.8291701,8.944737,-0.0061086523,0.02321288,0.015882496,-7.74,-6.42,-31.199999
1774511855903,-2.1691468,1.733402,9.107543,0.07452556,-0.20647246,0.103847094,-7.68,-6.48,-31.199999
1774511855923,-2.183512,1.7238252,9.495404,0.09162979,-0.15760323,0.16982053,-7.74,-6.96,-31.199999
1774511855943,-1.9919758,1.8483237,9.950302,0.09162979,-0.15760323,0.16982053,-7.8599997,-7.02,-31.14
1774511855963,-2.087744,1.8722657,9.974244,0.14660765,0.07086037,0.26511553,-7.9199996,-7.2599998,-30.66
1774511855983,-2.2888567,1.7812861,9.768343,0.19547687,0.0061086523,0.38728857,-8.4,-7.68,-30.539999
1774511856004,-2.2697031,1.6663644,9.557653,0.21135938,-0.12339478,0.49846604,-8.16,-7.02,-30.779999
1774511856024,-2.1787236,1.7381904,9.519346,0.22602014,-0.28588495,0.5888741,-7.74,-6.3599997,-30.72
1774511856045,-1.8770541,1.8674773,10.113108,0.28344148,-0.24801129,0.61819565,-7.62,-5.52,-30.84
1774511856065,-1.5897499,1.7286136,10.577583,0.25900686,-0.17715092,0.6536258,-7.56,-5.4,-30.179998
1774511856086,-1.5897499,1.7286136,10.577583,0.22479841,-0.27122417,0.73792523,-7.62,-5.52,-30.06
1774511856107,-0.9864111,1.5849615,11.860875,0.2883284,-0.2773328,0.8038987,-7.74,-5.7,-30.0
1774511856128,-0.6799533,1.541866,11.669339,0.38606682,-0.14538592,0.8246681,-7.98,-5.7,-29.88
1774511856150,-0.59855044,1.7190368,10.596737,0.45081854,-0.030543262,0.81245077,-8.16,-5.7,-30.24
1774511856172,-0.2633622,1.5370775,9.624691,0.31398472,-0.06841691,0.7635816,-8.639999,-5.7599998,-30.119999
1774511856193,0.25378537,0.92895025,10.132261,0.10140363,-0.20280726,0.65484756,-9.719999,-6.42,-29.46
1774511856214,0.19632454,0.2873042,10.840945,0.028099801,-0.10751228,0.5375614,-9.9,-6.48,-29.279999
1774511856235,-0.17238252,-0.038307227,10.266336,0.1563815,0.16615535,0.5204572,-10.44,-6.54,-28.74
1774511856256,-0.21547815,0.033518825,9.011775,0.25045475,0.21380283,0.5363397,-10.86,-5.8199997,-28.859999
1774511856277,0.02873042,0.24899697,8.700529,0.16737708,0.14782938,0.47158796,-11.94,-6.42,-28.859999
1774511856299,-0.22984336,0.009576807,8.590396,0.10262536,0.02565634,0.3359759,-12.3,-7.14,-29.16
1774511856319,-0.04309563,-0.038307227,8.66701,0.017104227,-0.12583824,0.23701571,-12.24,-7.2,-29.4
1774511856339,-0.29688102,-0.2873042,9.313444,-0.073303826,-0.13439035,0.12461651,-12.78,-7.3199997,-30.119999
1774511856360,-0.5315128,-0.31124622,9.495404,-0.058643065,0.037873644,0.062308256,-12.059999,-6.7799997,-29.88
1774511856379,-0.60333884,-0.2825158,8.848969,-0.065973446,0.20525073,-0.004886922,-12.24,-6.6,-29.76
1774511856401,-0.8858546,-0.18674773,8.432379,-0.095294975,0.17592919,-0.052534413,-12.36,-6.3599997,-29.58
1774511856423,-0.9720459,-0.22505496,8.355764,-0.118507855,0.08307768,-0.06352998,-11.82,-5.8199997,-28.859999
1774511856443,-1.0869676,-0.18195933,8.561666,-0.25411993,-0.014660766,-0.08552113,-11.94,-5.8799996,-28.98
1774511856464,-1.0007763,-0.047884032,8.99741,-0.25534168,-0.036651913,-0.112399206,-11.82,-5.7,-28.439999
1774511856485,-1.0055647,-0.08140286,9.26556,-0.2932153,0.017104227,-0.13927728,-11.28,-5.22,-28.199999
1774511856506,-1.067814,0.02873042,9.883265,-0.35918877,0.23579398,-0.17959438,-11.5199995,-5.16,-28.439999
1774511856526,-0.9911995,-0.019153614,9.792285,-0.3811799,0.35185838,-0.2125811,-11.099999,-4.92,-29.46
1774511856546,-1.091756,0.07182605,9.878476,-0.3811799,0.46914452,-0.26511553,-11.219999,-5.16,-29.699999
1774511856567,-1.091756,0.07182605,9.878476,-0.3494149,0.59742624,-0.30176744,-10.8,-4.92,-29.939999
1774511856588,-1.6711528,-0.22026655,9.639056,-0.32620203,0.57787853,-0.29565877,-11.099999,-5.22,-29.939999
1774511856609,-1.6089035,-0.110133275,9.543288,-0.25900686,0.43982297,-0.20647246,-11.099999,-5.46,-29.939999
1774511856631,-1.412579,-0.0047884034,9.935937,-0.21746802,0.28955013,-0.18325958,-10.98,-5.52,-30.3
1774511856652,-1.3790601,0.05746084,10.295067,-0.10995574,0.28221974,-0.21013765,-10.92,-5.7599998,-30.3
1774511856672,-1.5179238,0.24899697,9.907207,-0.013439035,0.41416663,-0.25167647,-10.139999,-5.1,-30.3
1774511856693,-1.460463,0.1340753,9.394848,-0.062308256,0.44837508,-0.3213151,-9.78,-4.62,-30.3
1774511856714,-1.4556746,-0.24899697,10.237606,-0.15027285,0.31031954,-0.42760566,-9.36,-3.8999999,-30.66
1774511856735,-1.7812861,-0.6895301,10.773908,-0.04520403,0.48380527,-0.41416663,-8.88,-3.78,-30.96
1774511856755,-1.9440918,-0.46926352,9.600749,0.1160644,0.7696902,-0.26633725,-7.7999997,-4.08,-30.84
1774511856777,-1.8818425,0.61770403,5.9663506,0.14782938,0.81489426,-0.17959438,-7.7999997,-4.08,-30.84
1774511856798,-1.7860745,0.7038953,6.612785,-0.04153884,-0.3811799,-0.26267207,-6.66,-3.6599998,-31.019999
1774511856817,-1.8100165,0.48362875,9.504981,-0.028099801,-0.68294734,-0.28955013,-6.66,-4.2599998,-31.08
1774511856839,-1.7812861,0.22505496,9.107543,-0.0720821,-0.33841935,-0.267559,-6.12,-3.6,-31.5
1774511856860,-1.5705963,0.3878607,9.543288,-0.27122417,-0.21013765,-0.3408628,-6.8399997,-3.84,-31.8
1774511856880,-2.0254946,0.23942018,10.323798,-0.24678956,-0.13683382,-0.4166101,-7.44,-4.38,-31.859999
1774511856900,-2.3223755,0.31603462,10.132261,-0.13805555,-0.02443461,-0.37751472,-7.68,-3.72,-31.92
1774511856922,-2.408567,0.37349546,9.246407,-0.06719518,0.004886922,-0.3005457,-8.34,-4.38,-32.04
1774511856943,-2.0494366,0.62249243,9.11712,0.05131268,-0.38240165,-0.18570304,-8.4,-4.2599998,-32.399998
1774511856963,-1.757344,0.7278373,9.337387,0.12217305,-0.3371976,-0.15515977,-7.8599997,-3.8999999,-32.34
1774511856984,-1.7477672,0.82360536,9.064447,0.05497787,-0.25411993,-0.11484267,-7.7999997,-4.56,-32.28
1774511857004,-1.6328455,0.8714894,8.647857,-0.111177474,-0.33108896,-0.09162979,-7.5,-4.68,-30.779999
1774511857024,-1.4939818,0.81402856,8.983045,-0.21013765,-0.46670106,-0.07819075,-7.98,-4.68,-30.72
1774511857044,-1.2306197,0.80445176,9.615114,-0.2443461,-0.6047566,-0.10995574,-7.98,-3.9599998,-30.42
1774511857064,-1.2976574,0.6368576,10.055647,-0.25900686,-0.61208695,-0.073303826,-8.58,-3.84,-30.359999
1774511857084,-1.6903064,0.545878,10.481815,-0.2125811,-0.46670106,0.065973446,-9.059999,-3.8999999,-30.96
1774511857104,-1.7621324,0.7422025,10.5919485,-0.14782938,-0.27855456,0.14049901,-9.0,-3.6599998,-30.66
1774511857124,-1.3982137,1.2880806,10.323798,-0.096516706,-0.07086037,0.11362094,-9.42,-3.8999999,-30.84
1774511857144,-1.1587936,1.6232687,9.959879,0.057421334,-0.052534413,0.028099801,-8.88,-3.1799998,-30.84
1774511857165,-1.1971009,1.6136919,9.471462,0.1160644,-0.07086037,0.0061086523,-8.88,-3.12,-30.779999
1774511857185,-1.8004397,0.9768343,8.834604,0.035430185,-0.036651913,0.1001819,-9.719999,-3.6599998,-30.9
1774511857206,-1.8004397,0.9768343,8.834604,-0.07574729,-0.029321533,0.16249016,-10.2,-4.08,-30.359999
1774511857226,-1.1827357,1.1587936,9.749189,-0.07696902,-0.02687807,0.119729586,-10.92,-4.74,-30.359999
1774511857247,-1.3359646,0.79487497,9.730036,-0.02565634,0.040317107,0.09162979,-10.32,-4.2,-30.06
1774511857267,-1.757344,1.0007763,9.356541,0.012217305,0.034208454,0.21746802,-9.599999,-3.12,-30.539999
1774511857288,-1.9393034,1.460463,9.26556,0.064751714,-0.10995574,0.3481932,-9.42,-3.1799998,-30.179998
1774511857308,-1.5370775,1.4700398,9.682152,0.10262536,-0.2321288,0.4251622,-9.54,-2.82,-30.179998
1774511857328,-1.4700398,1.4987702,10.0508585,0.17837265,-0.21746802,0.48624873,-10.0199995,-3.12,-30.72
1774511857348,-1.1444284,1.6567876,9.849746,0.22968534,-0.11362094,0.56199604,-10.32,-3.48,-30.779999
1774511857368,-0.92895025,1.8339585,9.576807,0.23701571,-0.04153884,0.5864306,-10.74,-3.6,-30.96
1774511857388,-0.80445176,1.8483237,9.23683,0.22724187,0.010995574,0.61086524,-11.16,-3.78,-31.019999
1774511857409,-0.7374141,1.9393034,8.983045,0.18448131,-0.02321288,0.6206391,-11.5199995,-4.08,-30.359999
1774511857430,-0.62728083,1.8291701,9.32781,0.14294247,-0.13561209,0.61453044,-12.12,-4.38,-30.06
1774511857451,-0.62728083,1.5514427,9.902418,0.17104226,-0.21502456,0.61086524,-11.94,-3.8999999,-29.76
1774511857473,-0.58418524,1.5035586,9.993398,0.22113322,-0.17104226,0.65240407,-11.88,-4.02,-29.939999
1774511857495,-0.7565677,1.3838485,9.691729,0.16126843,-0.10629055,0.66950834,-11.5199995,-2.8799999,-29.82
1774511857516,-0.8523358,0.9864111,10.323798,0.028099801,-0.18081611,0.72204274,-11.5199995,-2.8799999,-29.82
1774511857536,-0.6751649,0.81881696,11.118672,-0.02687807,-0.19058995,0.8246681,-11.94,-2.58,-29.16
1774511857557,-0.39264908,0.6895301,11.305421,-0.012217305,-0.12095132,0.88453287,-12.599999,-2.6399999,-29.099998
1774511857578,-0.090979666,0.8331822,10.979809,-0.018325957,-0.04886922,0.89552844,-12.719999,-2.3999999,-29.099998
1774511857599,-0.1436521,0.8331822,10.654198,-0.04153884,-0.07696902,0.8173377,-12.9,-2.1,-29.76
1774511857620,0.02873042,0.25857377,10.6398325,-0.112399206,-0.204029,0.77213365,-13.08,-1.74,-29.34
1774511857640,0.24420857,-0.320823,11.477803,-0.1563815,-0.33353242,0.73548174,-12.9,-0.9,-29.64
1774511857660,0.33997664,-0.62728083,11.741165,-0.064751714,-0.19792034,0.6988298,-13.0199995,-0.35999998,-29.82
1774511857681,0.79008657,-0.1436521,10.409989,0.0720821,0.112399206,0.6976081,-13.679999,-0.65999997,-29.519999
1774511857702,0.80445176,-0.05746084,9.232041,0.24923302,-0.10262536,0.61453044,-13.62,0.0,-29.64
1774511857722,0.7182605,0.038307227,9.131485,0.14538592,-0.19181168,0.27000242,-14.88,-0.24,-30.3
1774511857744,0.34955344,-0.33518824,9.44752,0.09040806,-0.0036651916,0.1685988,-14.7,0.24,-30.42
1774511857765,-0.4165911,-0.8810662,9.260772,-0.010995574,0.1685988,0.19914207,-14.94,-0.12,-30.539999
1774511857786,-0.81402856,-1.0486604,9.241618,0.002443461,0.20891592,0.21624629,-14.88,-0.29999998,-30.3
1774511857806,-0.80445176,-0.61770403,8.911219,0.06963864,0.18692477,0.17592919,-14.46,0.29999998,-29.76
1774511857827,-0.80445176,-0.61770403,8.911219,0.0720821,0.19303341,0.12095132,-14.46,0.42,-29.82
1774511857848,-1.0486604,-0.78050977,8.571242,-0.0012217305,0.21502456,0.13072516,-14.46,0.65999997,-29.64
1774511857868,-0.89543146,-0.45968673,8.7053175,-0.103847094,0.2602286,0.15149458,-14.4,0.65999997,-29.58
1774511857889,-0.46926352,-0.3878607,8.719683,-0.14905111,0.2602286,0.10629055,-14.58,0.06,-29.88
1774511857910,-0.5554548,-0.14844051,8.690952,-0.18936823,0.21868975,0.02076942,-14.46,-0.12,-29.939999
1774511857931,-0.6751649,-0.20111294,8.916007,-0.2773328,0.21502456,-0.061086524,-14.219999,-0.35999998,-29.88
1774511857953,-0.62728083,-0.46926352,9.394848,-0.39095375,0.24678956,-0.08552113,-14.219999,-0.29999998,-30.3
1774511857974,-0.7422025,-0.33518824,9.92636,-0.36651915,0.15882497,-0.09162979,-13.799999,0.17999999,-30.48
1774511857995,-0.641646,-0.23942018,10.352529,-0.2443461,0.1563815,-0.1001819,-13.44,0.84,-30.539999
1774511858015,-0.6799533,-0.02873042,9.667787,-0.07941248,0.21746802,-0.10995574,-13.559999,1.4399999,-30.539999
1774511858036,-0.5746084,0.15801731,9.097966,-0.0720821,0.18081611,-0.15027285,-12.84,2.04,-30.539999
1774511858057,-0.641646,-0.01436521,9.471462,-0.17592919,0.119729586,-0.21991149,-12.719999,1.9799999,-30.9
1774511858077,-0.6464345,-0.090979666,10.1226845,-0.21135938,0.1160644,-0.28344148,-12.719999,1.3199999,-30.96
1774511858098,-1.0055647,-0.20590134,10.304645,-0.13805555,0.18081611,-0.35430184,-12.12,1.8,-31.199999
1774511858120,-1.3120226,-0.40222588,10.132261,-0.05009095,0.23945917,-0.344528,-12.12,2.28,-31.5
1774511858148,-0.9864111,-0.16280572,9.787497,-0.09407325,-0.28588495,-0.2125811,-11.94,2.3999999,-31.38
1774511858167,-0.78529817,0.25857377,9.940725,-0.013439035,-0.24923302,-0.24923302,-11.7,2.9399998,-31.74
1774511858188,-0.8810662,0.29209262,9.270349,0.06719518,-0.17715092,-0.30909783,-12.0,2.58,-31.38
1774511858209,-0.94810385,0.40701428,8.973468,0.065973446,-0.15027285,-0.30665436,-12.96,1.26,-31.26
1774511858229,-0.80924016,0.5363012,9.078813,-0.032986723,-0.105068825,-0.32620203,-12.9,1.0799999,-31.019999
1774511858249,-0.8523358,0.21547815,9.452309,-0.14294247,-0.057421334,-0.39584067,-12.66,1.26,-31.199999
1774511858272,-1.163582,-0.1340753,9.141062,-0.22602014,-0.27366763,-0.40561453,-12.24,1.74,-31.199999
1774511858297,-1.1204864,-0.36870706,9.935937,-0.21868975,-0.6169739,-0.3042109,-12.66,1.56,-31.74
1774511858317,-0.79008657,-0.30166942,10.328587,-0.04642576,-0.7134906,-0.17104226,-13.0199995,1.02,-31.439999
1774511858337,-0.1436521,0.15801731,10.079589,0.111177474,-0.5375614,-0.08552113,-13.32,0.84,-31.38
1774511858358,0.18195933,0.5602432,9.346964,0.1881465,-0.16982053,-0.14538592,-13.679999,0.78,-30.539999
1774511858379,-0.11971009,0.45489833,8.461109,0.16982053,0.02687807,-0.2125811,-13.5,0.9,-30.48
1774511858399,-0.2873042,0.51714754,8.015787,0.065973446,0.06841691,-0.18692477,-13.74,1.0799999,-30.779999
1774511858421,-0.06703765,0.60812724,8.303091,-0.09896017,-0.09896017,-0.15149458,-13.32,1.56,-30.599998
1774511858442,0.272939,0.48362875,9.083601,-0.19914207,-0.2919936,-0.17592919,-13.86,1.14,-30.66
1774511858461,0.320823,0.36870706,10.012551,-0.30909783,-0.33108896,-0.23090707,-13.5,1.14,-30.779999
1774511858482,0.090979666,0.37828386,10.7116585,-0.3885103,-0.267559,-0.25167647,-14.16,0.84,-31.199999
1774511858501,-0.31124622,0.61291564,11.233594,-0.38973203,-0.103847094,-0.21624629,-14.58,0.96,-30.96
1774511858521,-0.37349546,0.93852705,10.91756,-0.25289822,0.009773844,-0.13439035,-14.28,1.26,-30.72
1774511858541,-0.30166942,1.2976574,10.596737,-0.11728613,0.028099801,-0.10629055,-14.639999,1.26,-30.48
1774511858561,-0.30166942,1.3263878,10.16578,0.019547688,0.081855945,-0.11362094,-14.82,0.84,-29.76
1774511858582,-0.2777274,1.3742718,9.509769,0.073303826,0.15271631,-0.1001819,-14.94,1.02,-30.359999
1774511858603,-0.033518825,1.5035586,9.102755,0.06352998,0.19792034,-0.18692477,-15.0,1.0799999,-30.3
1774511858624,-0.2777274,1.316811,8.801085,0.06352998,0.19792034,-0.18692477,-15.0,1.02,-30.72
1774511858644,-0.45489833,1.0151415,8.863335,0.04153884,-0.015882496,-0.089186326,-14.82,1.38,-31.439999
1774511858664,-0.2873042,0.90021986,9.44752,0.08674286,0.02321288,-0.03176499,-14.4,1.0799999,-31.199999
1774511858684,-0.07182605,0.8619126,9.768343,0.10995574,0.09285152,0.013439035,-14.34,1.5,-30.84
1774511858704,0.0,1.0582372,9.471462,0.09285152,0.008552114,0.05497787,-14.04,1.14,-31.08
1774511858725,-0.08619126,1.1013328,9.586384,0.10751228,-0.057421334,0.10751228,-14.099999,1.1999999,-31.08
1774511858746,0.1340753,1.2210429,9.983821,0.12705997,0.0036651916,0.1160644,-13.98,1.3199999,-31.32
1774511858766,0.23463176,1.4030021,9.902418,0.112399206,0.06963864,0.112399206,-13.98,0.96,-31.439999
1774511858786,0.07182605,1.4460979,9.830592,0.14049901,0.11484267,0.14660765,-13.92,1.68,-31.26
1774511858807,0.062249243,1.5801731,9.533711,0.16493362,0.07086037,0.14660765,-13.62,1.9799999,-31.38
1774511858827,0.10055647,1.6567876,9.102755,0.13316862,-0.062308256,0.13805555,-13.74,1.3199999,-31.32
1774511858848,-0.33518824,1.4460979,9.773131,0.1160644,-0.16615535,0.17715092,-13.74,1.1999999,-31.199999
1774511858868,-0.39743748,1.388637,10.242394,0.12095132,-0.20647246,0.25167647,-13.92,0.65999997,-31.199999
1774511858889,-0.39743748,1.388637,10.242394,0.09896017,-0.25411993,0.31887165,-14.099999,0.35999998,-31.14
1774511858909,0.10534488,1.0247183,11.544841,0.10140363,-0.27366763,0.32253686,-14.099999,0.71999997,-31.019999
1774511858930,0.19632454,0.6799533,11.769896,0.111177474,-0.25167647,0.31398472,-14.099999,0.78,-30.9
1774511858952,-0.019153614,0.50757074,11.583148,0.1160644,-0.19181168,0.30298916,-14.099999,1.38,-30.66
1774511858972,0.25378537,-0.06703765,11.69807,0.010995574,-0.19058995,0.2919936,-13.98,1.62,-31.08
1774511858993,0.40701428,-0.641646,12.363658,-0.0012217305,-0.19058995,0.23823744,-14.759999,1.4399999,-31.38
1774511859013,0.22505496,-1.0342951,12.018892,0.12217305,-0.004886922,0.2125811,-14.7,1.74,-30.84
1774511859036,-0.033518825,-1.2449849,10.769119,0.2687807,0.2321288,0.26267207,-15.299999,0.59999996,-30.3
1774511859057,0.04309563,-1.0295067,9.323022,0.3286455,0.32620203,0.32620203,-15.66,0.48,-30.0
1774511859077,0.05746084,-0.6703765,8.236053,0.33964106,0.23090707,0.2846632,-14.94,0.78,-30.24
1774511859098,-0.1340753,-1.0199299,8.183381,0.26389378,-0.052534413,0.1881465,-14.16,1.56,-30.84
1774511859118,-0.29209262,-1.2449849,8.872911,0.20647246,-0.21624629,0.16371189,-13.74,1.56,-31.199999
1774511859138,-0.16280572,-1.1923125,9.107543,0.1600467,-0.1441642,0.1600467,-13.98,1.3199999,-30.72
1774511859160,-0.33039984,-1.1923125,9.246407,0.06963864,0.10629055,0.12461651,-15.24,-0.06,-30.599998
1774511859182,-0.4213795,-0.8619126,8.992621,0.018325957,0.3567453,0.10262536,-15.599999,-0.53999996,-30.539999
1774511859203,-0.48362875,-0.770933,8.528147,-0.015882496,0.39095375,0.039095376,-15.299999,-0.24,-30.84
1774511859224,-0.81881696,-0.7517793,8.384495,-0.004886922,0.23701571,0.02076942,-14.82,0.35999998,-30.66
1774511859245,-0.7422025,-0.6847417,8.451532,-0.065973446,0.13316862,0.037873644,-14.16,0.96,-31.08
1774511859266,-0.5650316,-0.5410896,8.695741,-0.22235495,-0.028099801,-0.030543262,-14.16,0.9,-31.08
1774511859287,-0.62249243,-0.6799533,9.595961,-0.20158553,-0.0036651916,-0.007330383,-13.799999,0.96,-31.199999
1774511859307,-0.45968673,-0.7757214,10.342952,-0.15515977,0.1282817,0.036651913,-13.92,0.48,-31.32
1774511859328,-0.35913026,-0.521936,10.19451,-0.087964594,0.28710666,0.05375614,-13.74,0.53999996,-31.56
1774511859349,-0.5506664,-0.39264908,9.361329,-0.05131268,0.41783184,0.040317107,-13.679999,0.84,-31.619999
1774511859371,-0.6847417,-0.2825158,8.930372,-0.06963864,0.312763,0.042760566,-13.62,1.0799999,-31.619999
1774511859392,-0.5746084,-0.07182605,9.016563,-0.087964594,0.15271631,0.032986723,-13.32,1.3199999,-32.1
1774511859415,-0.6991069,-0.076614454,9.32781,-0.05497787,0.05131268,0.0012217305,-12.48,1.86,-32.1
1774511859436,-0.6464345,-0.12449849,9.370906,-0.037873644,0.09407325,-0.002443461,-12.0,2.28,-32.52
1774511859456,-0.7182605,0.07182605,9.595961,-0.096516706,0.18203785,-0.056199603,-12.24,2.22,-32.219997
1774511859478,-0.8714894,-0.038307227,9.801862,-0.13194689,0.267559,-0.111177474,-12.059999,2.22,-32.82
1774511859499,-1.115698,-0.095768064,10.199299,-0.13072516,0.41050145,-0.11728613,-12.48,1.86,-33.18
1774511859521,-0.9911995,-0.047884032,10.089166,-0.04642576,0.56077427,-0.09773844,-12.179999,2.1,-33.12
1774511859542,-0.6512229,0.038307227,9.557653,-0.035430185,0.5925393,-0.17715092,-11.58,2.34,-32.76
1774511859573,-1.5227122,-0.2777274,9.873688,-0.09773844,-0.17470746,-0.30176744,-11.94,1.74,-32.16
1774511859592,-1.340753,0.04309563,9.423578,0.004886922,-0.037873644,-0.20525073,-11.639999,1.1999999,-31.859999
1774511859613,-1.0151415,0.05746084,9.361329,-0.05497787,0.037873644,-0.20647246,-11.219999,1.38,-32.52
1774511859633,-1.3215994,0.16280572,9.44752,-0.1001819,0.13561209,-0.26267207,-10.98,1.92,-32.7
1774511859672,-1.3934253,-0.076614454,9.222465,-0.17470746,-0.3200934,-0.119729586,-10.92,1.92,-33.84
1774511859693,-0.8283938,0.19632454,10.065224,-0.07452556,-0.5497787,-0.047647487,-11.4,1.1999999,-34.02
1774511859713,-0.50278234,0.25378537,10.132261,0.010995574,-0.44959682,-0.07574729,-11.4,1.26,-34.14
1774511859733,-0.7230489,0.05746084,9.950302,0.02321288,-0.2724459,-0.10873401,-11.759999,0.96,-34.2
1774511859753,-0.48841715,0.05746084,9.768343,0.052534413,-0.111177474,-0.05497787,-11.88,1.86,-34.32
1774511859774,-0.15322891,0.4309563,9.279925,0.15882497,0.030543262,-0.03176499,-11.639999,2.82,-34.44
1774511859794,-0.12928689,0.5650316,8.825027,0.1966986,0.12950343,-0.04886922,-11.34,3.6,-34.559998
1774511859813,-0.23942018,0.59376204,8.034941,0.15393804,0.1001819,-0.07819075,-11.4,3.3,-33.96
1774511859834,0.019153614,0.59855044,8.312668,-0.07452556,-0.1282817,-0.09407325,-11.7,2.52,-33.66
1774511859854,0.02873042,0.545878,9.246407,-0.3652974,-0.312763,-0.14782938,-12.12,1.56,-33.48
1774511859874,-0.25378537,0.7326257,10.682928,-0.5363397,-0.41172317,-0.18081611,-12.3,0.84,-33.18
1774511859893,-0.29209262,0.7757214,12.071565,-0.45814893,-0.34697145,-0.20891592,-11.7,1.9799999,-33.84
1774511859913,-0.5315128,0.8762778,11.903971,-0.22235495,0.028099801,-0.19058995,-11.58,2.34,-33.78
1774511859933,-0.81402856,1.1013328,10.817003,-0.05009095,0.27000242,-0.13194689,-12.059999,2.46,-34.079998
1774511859953,-0.6368576,1.4796166,9.696517,0.07086037,0.29932398,-0.0720821,-12.84,2.04,-33.96
1774511859974,-0.49320555,1.8387469,9.294291,0.15515977,0.21013765,-0.11484267,-12.96,2.1599998,-33.84
1774511859994,-0.49799395,1.508347,8.978256,0.22357668,0.13439035,-0.18081611,-13.2,1.9799999,-33.96
1774511860015,-0.6607997,1.13964,8.772355,0.20280726,0.08307768,-0.18203785,-12.9,2.22,-33.66
1774511860034,-0.7038953,0.8619126,8.959103,0.13683382,0.018325957,-0.07819075,-12.42,2.46,-33.78
1774511860054,-0.4309563,0.8858546,9.169792,0.14905111,-0.004886922,-0.028099801,-11.94,2.22,-33.059998
1774511860074,-0.41180268,1.0007763,8.963891,0.118507855,0.008552114,-0.012217305,-11.94,2.22,-33.059998
1774511860094,-0.80924016,0.93852705,9.02614,0.089186326,0.002443461,0.036651913,-13.559999,1.68,-33.18
1774511860114,-0.8858546,0.842759,9.323022,0.15393804,-0.008552114,0.22602014,-13.92,0.53999996,-32.7
1774511860134,-0.5506664,1.1587936,9.035717,0.17104226,-0.002443461,0.2883284,-13.92,0.0,-33.0
1774511860154,-0.521936,1.3694834,9.121908,0.05009095,-0.042760566,0.28344148,-13.92,0.29999998,-33.0
1774511860174,-0.521936,1.3599066,9.433155,0.009773844,-0.057421334,0.28588495,-13.0199995,0.48,-32.52
1774511860195,-0.4357447,1.508347,9.749189,-0.014660766,-0.07452556,0.30909783,-13.259999,0.59999996,-33.18
1774511860215,-0.4357447,1.5801731,10.093954,0.02321288,-0.02565634,0.3408628,-13.679999,0.06,-33.18
1774511860235,-0.41180268,1.6089035,10.280702,0.07574729,0.019547688,0.3567453,-13.32,0.96,-32.579998
1774511860255,-0.46926352,1.6376339,10.261548,0.103847094,0.07086037,0.37995818,-13.259999,1.56,-33.36
1774511860275,-0.31603462,1.7621324,10.089166,0.052534413,-0.002443461,0.32620203,-13.44,1.02,-33.48
1774511860296,-0.521936,1.3599066,10.5919485,0.035430185,-0.20158553,0.2932153,-13.5,0.42,-32.82
1774511860315,-0.842759,0.8619126,11.334151,0.061086524,-0.26389378,0.35308012,-14.46,1.14,-33.6
1774511860335,-0.7278373,0.4309563,11.908759,0.12583824,-0.1600467,0.5045747,-14.16,0.65999997,-33.54
1774511860355,-0.6368576,0.7422025,11.654974,0.10140363,-0.04520403,0.5326745,-12.9,1.56,-33.0
1774511860375,-0.21547815,0.6607997,11.128249,-0.05497787,-0.13683382,0.40683624,-12.78,1.4399999,-32.7
1774511860396,-0.39743748,-0.20111294,11.774684,-0.018325957,-0.2968805,0.36163223,-13.08,1.8,-34.079998
1774511860417,-0.6991069,-0.7613561,12.239159,0.2883284,-0.18570304,0.48502702,-13.259999,2.34,-33.719997
1774511860437,-0.60333884,-0.7278373,11.099519,0.408058,-0.02443461,0.535118,-12.54,2.28,-33.54
1774511860458,-0.5746084,-0.545878,9.888053,0.49113566,0.095294975,0.5045747,-12.3,2.6399999,-33.66
1774511860478,-0.51714754,-0.4261679,8.6095495,0.50946164,0.05131268,0.45204028,-13.38,0.65999997,-34.079998
1774511860499,-0.7230489,-0.47405192,7.9248075,0.41050145,-0.16249016,0.3726278,-13.139999,0.53999996,-33.6
1774511860520,-0.7422025,-0.8523358,8.145074,0.30176744,-0.29932398,0.32253686,-12.84,0.59999996,-33.96
1774511860540,-0.6991069,-1.0630256,8.78672,0.24801129,-0.25900686,0.3005457,-12.3,0.96,-33.18
1774511860560,-0.5793968,-0.9528923,9.02614,0.12583824,-0.1282817,0.21991149,-14.04,0.84,-33.96
1774511860580,-0.49799395,-0.9720459,9.078813,0.032986723,-0.032986723,0.17715092,-14.34,0.84,-34.32
1774511860600,-0.49799395,-0.8858546,9.069236,-0.02321288,-0.037873644,0.13439035,-14.28,0.12,-34.68
1774511860620,-0.49799395,-0.8523358,9.126697,-0.02321288,-0.037873644,0.13439035,-13.799999,0.48,-34.98
1774511860641,-0.44532153,-0.82360536,9.255983,-0.04520403,-0.10873401,0.11728613,-13.5,0.59999996,-34.559998
1774511860661,-0.29209262,-0.56982,9.667787,-0.06352998,-0.05009095,0.09285152,-13.259999,0.59999996,-34.32
1774511860681,-0.12928689,-0.32561144,9.3182335,-0.06963864,0.1441642,0.04153884,-13.08,1.14,-34.14
1774511860702,-0.47884035,-0.22505496,8.662222,-0.118507855,0.26389378,-0.007330383,-13.0199995,1.3199999,-34.26
1774511860766,-0.6703765,-0.1340753,9.437943,-0.26633725,0.037873644,-0.14538592,-13.0199995,2.1599998,-35.579998
1774511860786,-0.62249243,-0.12449849,9.706094,-0.27488935,0.07452556,-0.11484267,-13.86,2.1,-35.76
1774511860807,-0.62249243,-0.12449849,9.706094,-0.25900686,0.105068825,-0.12705997,-14.099999,2.28,-36.239998
1774511860828,-0.2777274,0.076614454,9.811439,-0.26633725,0.04886922,-0.1966986,-13.92,2.46,-35.7
1774511860848,-0.45489833,0.076614454,10.462662,-0.21746802,0.07696902,-0.23335053,-13.92,2.34,-35.52
1774511860868,-0.63206923,0.2681506,10.34774,-0.07819075,0.2602286,-0.2284636,-13.44,2.6399999,-35.28
1774511860888,-0.19153613,0.0,9.758766,-0.096516706,0.36285394,-0.25411993,-12.96,2.52,-34.559998
1774511860908,-0.6799533,0.02873042,10.151415,-0.103847094,0.21135938,-0.3115413,-12.9,2.46,-34.739998
1774511860928,-0.7278373,0.2873042,10.0748005,0.057421334,0.1600467,-0.25778514,-12.36,3.24,-34.92
1774511860949,-0.7374141,0.7469909,8.09719,0.12461651,0.12339478,-0.2284636,-11.34,4.02,-35.04
1774511860970,-0.20590134,0.50757074,9.797073,-0.059864793,-0.29565877,-0.21746802,-11.82,3.6,-35.7
1774511860989,-0.12449849,0.51235914,10.817003,-0.02443461,-0.13439035,-0.28344148,-11.16,3.4199998,-35.76
1774511861010,-0.07182605,0.320823,10.247183,0.06719518,0.12461651,-0.31520647,-11.34,2.82,-35.76
1774511861029,0.22505496,0.29209262,9.758766,0.16249016,0.26389378,-0.3200934,-11.88,2.1599998,-36.36
1774511861050,0.10534488,0.41180268,8.422802,0.22602014,0.36041048,-0.35430184,-11.4,2.46,-36.0
1774511861087,0.17238252,0.59855044,8.1881695,0.004886922,-0.18936823,-0.31887165,-11.58,2.04,-35.82
1774511861107,0.5602432,0.6368576,9.337387,-0.11484267,-0.35796702,-0.3555236,-10.8,2.28,-35.46
1774511861127,0.4405331,0.6368576,10.084377,-0.18081611,-0.2565634,-0.4605924,-11.099999,1.68,-35.399998
1774511861147,0.0047884034,0.4261679,10.0029745,-0.25045475,-0.10751228,-0.4886922,-11.04,1.86,-35.88
1774511861168,-0.35434186,0.63206923,10.472239,-0.28344148,-0.103847094,-0.4202753,-11.219999,1.68,-36.059998
1774511861187,-0.320823,0.9720459,10.635044,-0.17837265,-0.030543262,-0.31887165,-11.82,1.5,-36.36
1774511861207,-0.23942018,1.460463,10.079589,-0.059864793,0.06841691,-0.2968805,-11.28,1.92,-35.88
1774511861227,-0.2681506,1.685518,9.385271,-0.013439035,0.16249016,-0.36651915,-11.5199995,1.92,-36.12
1774511861248,-0.58418524,1.5562311,8.762778,-0.03176499,0.10262536,-0.43249258,-11.58,2.1,-36.239998
1774511861268,-0.7613561,1.2545617,9.011775,-0.07696902,-0.034208454,-0.39706242,-11.46,1.74,-36.3
1774511861288,-0.48841715,1.2545617,9.844957,-0.08307768,0.002443461,-0.34208453,-11.759999,1.86,-37.32
1774511861308,-0.5410896,1.1540052,9.9790325,-0.05131268,0.12339478,-0.35430184,-12.179999,1.26,-37.14
1774511861329,-0.7613561,0.9720459,9.648633,0.02321288,0.20647246,-0.31642818,-12.12,1.14,-37.26
1774511861348,-0.92895025,1.0055647,8.829816,0.06963864,0.172264,-0.204029,-11.88,1.3199999,-36.84
1774511861368,-0.82360536,1.388637,8.604761,0.014660766,0.07452556,-0.07574729,-11.7,1.0799999,-36.48
1774511861388,-0.49320555,1.7908629,8.973468,-0.05009095,0.06841691,-0.05497787,-11.639999,1.14,-36.36
1774511861409,-0.6847417,1.6759412,8.863335,-0.032986723,0.040317107,-0.12095132,-11.16,1.5,-36.36
1774511861430,-0.90500826,1.5227122,8.959103,-0.034208454,-0.030543262,-0.096516706,-11.5199995,0.84,-36.3
1774511861450,-1.1587936,1.5658079,9.41879,-0.0720821,-0.004886922,-0.009773844,-11.5199995,0.71999997,-36.66
1774511861470,-1.0630256,1.6089035,9.787497,-0.030543262,0.07696902,0.10995574,-10.92,1.38,-36.48
1774511861490,-0.7469909,1.9488802,9.576807,0.06841691,0.047647487,0.16371189,-11.46,0.59999996,-36.239998
1774511861510,-0.6847417,1.9776106,9.9550905,0.15393804,-0.103847094,0.14172074,-11.34,0.84,-36.239998
1774511861530,-0.90500826,1.6232687,10.19451,0.28344148,-0.19914207,0.18570304,-10.92,1.14,-35.88
1774511861550,-0.60333884,1.757344,10.208876,0.37873647,-0.21380283,0.30909783,-11.099999,0.53999996,-35.88
1774511861571,-0.23942018,1.8435353,10.251971,0.37384954,-0.13683382,0.30176744,-10.38,1.26,-35.88
1774511861592,-0.5650316,1.7764976,10.280702,0.34330627,-0.0036651916,0.27000242,-10.26,1.0799999,-36.3
1774511861612,-0.7374141,1.4173675,9.902418,0.31764993,0.002443461,0.3371976,-10.62,0.9,-36.36
1774511861632,-0.5793968,1.1540052,10.692505,0.28588495,-0.17348573,0.44348818,-10.74,0.84,-36.48
1774511861653,-0.4165911,1.1444284,11.228806,0.30543262,-0.22602014,0.47036624,-10.92,0.71999997,-36.54
1774511861674,-0.14844051,0.6943185,11.688493,0.25900686,-0.17715092,0.41416663,-11.58,0.42,-36.18
1774511861695,-0.4405331,0.14844051,11.45865,0.15515977,0.037873644,0.37018433,-11.82,0.0,-35.94
1774511861715,-0.37349546,-0.6368576,11.128249,-0.019547688,0.028099801,0.39584067,-11.639999,0.29999998,-36.12
1774511861736,-0.15322891,-0.9720459,12.047623,-0.062308256,-0.2321288,0.40683624,-12.059999,-0.29999998,-36.18
1774511861757,-0.1436521,-1.163582,12.066776,0.1160644,-0.22113322,0.40317106,-11.82,0.0,-36.54
1774511861777,-0.33039984,-1.2545617,10.989386,0.23335053,-0.004886922,0.41905355,-12.0,0.35999998,-37.2
1774511861799,-0.33039984,-1.0773908,9.830592,0.2565634,0.15027285,0.49357912,-12.059999,0.71999997,-37.079998
1774511861820,-0.14844051,-0.2873042,8.844181,0.2443461,0.24678956,0.49357912,-12.0,1.02,-36.719997
1774511861842,-0.35913026,0.01436521,8.030152,0.19181168,0.25411993,0.36285394,-12.0,0.9,-37.079998
1774511861863,-0.7757214,-0.1340753,7.9008656,0.13072516,0.073303826,0.23945917,-11.94,0.35999998,-37.2
1774511861884,-0.89543146,-0.3878607,8.566454,0.035430185,-0.10751228,0.18936823,-11.58,0.42,-37.8
1774511861904,-0.7565677,-0.4357447,9.160215,0.035430185,-0.10751228,0.18936823,-11.4,0.35999998,-38.04
1774511861924,-0.61770403,-0.31124622,9.351752,-0.081855945,0.119729586,0.057421334,-11.28,0.71999997,-37.86
1774511861945,-0.60333884,-0.35434186,9.313444,-0.081855945,0.119729586,0.057421334,-11.34,0.96,-37.92
1774511861966,-0.8858546,-0.60333884,9.524135,-0.052534413,0.21868975,0.030543262,-11.5199995,0.59999996,-37.38
1774511861987,-1.0295067,-0.7326257,9.308656,-0.05497787,0.26511553,0.087964594,-11.28,0.78,-37.5
1774511862008,-0.9768343,-0.6464345,9.299079,-0.02321288,0.31398472,0.14660765,-11.219999,0.53999996,-37.32
1774511862028,-0.641646,-0.076614454,8.480263,-0.058643065,0.30909783,0.14294247,-10.559999,0.71999997,-37.5
1774511862048,-0.6847417,0.33997664,8.350976,-0.14660765,0.18203785,0.089186326,-10.44,1.02,-37.739998
1774511862068,-0.7278373,0.35913026,8.6334915,-0.2406809,0.02321288,-0.0036651916,-10.08,1.38,-37.98
1774511862090,-0.7278373,0.35913026,8.6334915,-0.27122417,-0.087964594,-0.05497787,-10.26,1.4399999,-38.34
1774511862110,-1.043872,0.08140286,9.643845,-0.27366763,-0.0720821,0.0012217305,-10.679999,1.1999999,-38.1
1774511862131,-0.7661445,0.2825158,9.768343,-0.2919936,-0.03176499,0.012217305,-10.44,1.4399999,-37.8
1774511862153,-0.7661445,0.25378537,9.974244,-0.3213151,-0.02076942,-0.014660766,-10.679999,1.02,-37.5
1774511862175,-0.7422025,0.2825158,10.156203,-0.2724459,-0.065973446,-0.036651913,-10.2,1.5,-37.079998
1774511862195,-0.6991069,0.4309563,10.553641,-0.17470746,-0.09407325,-0.056199603,-9.9,2.28,-37.44
1774511862216,-0.62249243,0.47884035,10.376471,-0.09285152,-0.036651913,-0.09407325,-10.2,2.28,-38.04
1774511862237,-0.61770403,0.5650316,10.481815,-0.09285152,0.02321288,-0.15271631,-10.2,2.9399998,-38.399998
1774511862257,-0.51714754,0.37828386,10.658986,-0.059864793,0.089186326,-0.17837265,-10.2,3.0,-38.04
1774511862278,-0.50278234,0.49799395,10.802638,0.065973446,0.16615535,-0.21624629,-10.139999,2.76,-37.559998
1774511862299,-0.4213795,0.7182605,10.189722,0.172264,0.41050145,-0.29565877,-10.62,2.3999999,-37.739998
1774511862319,-1.091756,0.9911995,8.844181,0.13683382,0.5864306,-0.39706242,-10.62,2.1,-37.739998
1774511862339,-1.3934253,-0.04309563,7.517793,-0.043982297,0.16371189,-0.3811799,-10.5,1.62,-38.04
1774511862359,-0.91937345,0.5363012,9.370906,-0.030543262,-0.40317106,-0.22968534,-9.84,2.1,-38.219997
1774511862380,-0.33997664,0.60812724,10.01734,0.030543262,-0.28955013,-0.3213151,-9.9,1.92,-39.059998
1774511862400,-0.56982,0.39743748,9.524135,-0.018325957,-0.10262536,-0.43249258,-9.78,2.1,-39.0
1774511862420,-0.60333884,0.33997664,9.801862,-0.034208454,-0.08307768,-0.44348818,-10.26,1.86,-38.64
1774511862440,-0.59855044,0.59855044,9.155427,-0.014660766,-0.04886922,-0.44837508,-10.5,1.68,-38.7
1774511862464,-0.60333884,0.51714754,8.901642,-0.103847094,-0.3848451,-0.5314528,-10.26,1.74,-38.1
1774511862484,-0.6607997,0.4357447,9.528923,0.059864793,-0.47769663,-0.4569272,-10.139999,1.8,-38.04
1774511862504,-0.7613561,0.22026655,9.859323,0.16493362,-0.27488935,-0.30543262,-9.78,2.04,-37.98
1774511862524,-0.61291564,0.4213795,9.605537,0.13805555,-0.04886922,-0.24923302,-10.44,1.8,-38.16
1774511862544,0.019153614,1.0055647,9.179369,0.095294975,0.059864793,-0.37751472,-10.559999,1.56,-38.1
1774511862565,-0.12449849,0.8810662,8.619126,-0.014660766,-0.07086037,-0.4288274,-10.98,0.9,-38.16
1774511862585,-0.45968673,0.5267244,8.8777,-0.10873401,-0.118507855,-0.3885103,-10.98,0.96,-38.52
1774511862604,-0.47884035,0.36391866,9.313444,-0.2443461,-0.09162979,-0.30787608,-10.74,0.42,-38.579998
1774511862625,-0.47405192,0.31124622,9.749189,-0.37873647,0.017104227,-0.22602014,-10.44,0.71999997,-38.94
1774511862644,-0.39743748,0.7565677,10.141838,-0.37873647,0.043982297,-0.21868975,-10.62,0.9,-39.12
1774511862665,-0.38307226,1.3072342,10.433931,-0.27000242,0.112399206,-0.22724187,-11.04,0.42,-39.059998
1774511862684,-0.56982,1.316811,10.553641,-0.07819075,0.1563815,-0.14172074,-10.98,0.84,-39.12
1774511862705,-0.79966336,1.4413095,9.864111,0.0,0.12950343,-0.07086037,-11.099999,1.3199999,-38.579998
1774511862726,-0.6607997,1.8148049,9.251195,0.037873644,0.08674286,-0.061086524,-10.62,1.5,-38.46
1774511862747,-0.5554548,1.8914193,8.868123,0.057421334,0.035430185,-0.064751714,-10.5,1.56,-38.64
1774511862767,-0.31603462,1.9153614,8.949526,0.09773844,0.015882496,-0.111177474,-10.92,0.9,-38.94
1774511862788,-0.5793968,1.4652514,8.6574335,0.037873644,0.03176499,-0.087964594,-10.92,0.42,-39.12
1774511862809,-0.6751649,1.1971009,8.868123,0.0012217305,0.0036651916,-0.052534413,-11.219999,0.0,-39.36
1774511862829,-0.62249243,1.2258313,9.203311,-0.013439035,-0.08552113,0.010995574,-11.219999,0.0,-39.48
1774511862849,-0.545878,1.163582,9.643845,-0.019547688,-0.15149458,0.04153884,-10.98,0.24,-39.42
1774511862869,-0.7757214,1.2354081,10.251971,-0.03176499,-0.112399206,0.095294975,-10.8,0.24,-39.54
1774511862889,-0.78529817,1.4413095,10.28549,-0.004886922,0.017104227,0.18936823,-10.5,0.96,-39.48
1774511862909,-0.58418524,1.7190368,10.232818,-0.0061086523,0.07086037,0.23945917,-10.62,1.1999999,-39.18
1774511862929,-0.6751649,1.8962077,10.323798,0.028099801,0.1160644,0.22357668,-10.5,1.56,-38.64
1774511862949,-0.92895025,1.7764976,9.816227,0.06841691,0.20769419,0.25167647,-10.559999,1.56,-38.52
1774511862970,-0.9911995,1.8291701,9.476251,0.0842994,0.20280726,0.36774087,-10.559999,1.14,-38.52
1774511862991,-1.0342951,1.7238252,9.581595,0.1563815,0.008552114,0.46670106,-10.679999,0.71999997,-38.7
1774511863012,-0.7326257,1.7286136,9.988609,0.19181168,-0.12339478,0.55955255,-10.62,0.71999997,-39.059998
1774511863032,-0.6847417,1.4796166,10.314221,0.13927728,-0.11728613,0.59498274,-10.38,1.0799999,-39.059998
1774511863053,-0.4357447,1.0869676,10.793061,0.057421334,-0.10873401,0.6731735,-10.44,1.26,-38.879997
1774511863073,-0.2777274,0.9864111,11.209652,0.019547688,-0.09162979,0.7293731,-9.9,2.3999999,-39.42
1774511863094,-0.32561144,0.7326257,11.401189,0.04642576,-0.058643065,0.766025,-9.719999,2.6399999,-39.12
1774511863116,-0.45010993,0.7517793,11.118672,0.09040806,-0.015882496,0.82711154,-10.5,2.1599998,-38.94
1774511863137,0.038307227,0.36391866,10.778696,0.02076942,-0.05009095,0.8063421,-10.679999,2.1,-39.059998
1774511863158,0.22026655,-0.47884035,11.501745,-0.034208454,-0.21746802,0.6609562,-11.099999,1.8,-38.7
1774511863179,0.2873042,-0.80445176,12.109872,0.11728613,-0.14905111,0.56199604,-10.5,2.7,-39.66
1774511863199,0.30166942,-0.8283938,10.778696,0.34330627,0.1600467,0.4654793,-10.74,3.0,-39.96
1774511863219,0.05267244,-0.9624691,8.963891,0.41783184,0.16493362,0.36163223,-10.44,3.06,-40.379997
1774511863239,0.0,-0.9624691,8.504205,0.3408628,-0.032986723,0.2602286,-10.2,3.3,-40.68
1774511863260,-0.20590134,-1.1827357,8.973468,0.20280726,-0.14172074,0.10995574,-10.2,3.24,-40.379997
1774511863281,-0.8714894,-1.4269443,9.11712,0.09896017,0.036651913,0.042760566,-9.84,2.8799999,-40.14
1774511863302,-1.2689269,-1.2641385,8.671799,0.015882496,0.22357668,0.11484267,-9.96,2.6399999,-40.02
1774511863323,-1.1779473,-0.90500826,8.432379,-0.021991149,0.22357668,0.204029,-10.32,2.1599998,-39.96
1774511863343,-0.93373865,-0.60333884,8.0924015,-0.07819075,-0.032986723,0.14782938,-10.2,1.9799999,-40.14
1774511863365,-0.7661445,-0.5554548,8.384495,-0.1685988,-0.04520403,0.10873401,-9.84,2.1599998,-40.379997
1774511863385,-0.7038953,-0.7613561,9.002198,-0.1685988,-0.04520403,0.10873401,-9.66,2.28,-40.32
1774511863407,-0.50757074,-0.79487497,9.179369,-0.32986724,0.14782938,0.13316862,-9.12,2.8799999,-40.02
1774511863428,-0.25857377,-0.46926352,9.337387,-0.32253686,0.204029,0.042760566,-8.76,3.1799998,-40.079998
1774511863449,-0.35913026,0.07182605,9.150639,-0.30665436,0.24556783,-0.09407325,-9.12,3.12,-39.96
1774511863470,-0.7182605,-0.095768064,9.375694,-0.3555236,0.16737708,-0.13316862,-8.88,3.6599998,-39.899998
1774511863491,-0.82360536,-0.062249243,9.825804,-0.30909783,0.09407325,-0.11728613,-8.639999,4.2,-39.899998
1774511863512,-0.6895301,-0.10534488,10.084377,-0.22602014,0.05009095,-0.13683382,-8.639999,4.02,-39.66
1774511863533,-0.79966336,-0.19632454,10.189722,-0.1282817,0.080634214,-0.21135938,-7.98,4.98,-39.899998
1774511863555,-0.89064306,-0.4309563,9.950302,-0.057421334,0.095294975,-0.25411993,-7.7999997,5.22,-39.78
1774511863575,-0.8810662,-0.4357447,9.816227,-0.04153884,0.080634214,-0.26267207,-7.8599997,5.3399997,-40.32
1774511863596,-0.90500826,-0.25378537,10.0748005,-0.034208454,0.09407325,-0.2883284,-7.98,5.52,-40.739998
1774511863616,-0.90979666,-0.1388637,9.821015,0.030543262,0.12461651,-0.31642818,-8.4,4.98,-40.5
1774511863636,-0.9624691,-0.24420857,9.648633,0.039095376,0.118507855,-0.35430184,-8.5199995,4.56,-40.92
1774511863657,-0.8379706,-0.34955344,10.093954,0.0036651916,0.16126843,-0.344528,-8.34,4.68,-41.04
1774511863678,-0.641646,-0.17717093,10.036493,0.059864793,0.17348573,-0.3921755,-8.22,4.7999997,-41.34
1774511863699,-0.9624691,-0.15322891,9.519346,0.13805555,0.16126843,-0.45448375,-8.22,4.5,-41.46
1774511863721,-1.388637,-0.15322891,8.451532,0.11728613,0.05009095,-0.4361578,-7.7999997,4.3199997,-41.219997
1774511863742,-1.13964,0.10055647,9.02614,0.02076942,-0.096516706,-0.39461896,-7.5,4.68,-41.28
1774511863761,-1.1013328,0.11971009,9.572019,-0.018325957,-0.05009095,-0.42760566,-7.2,4.44,-41.219997
1774511863781,-1.1587936,-0.076614454,9.787497,-0.035430185,0.04642576,-0.44226643,-7.14,4.14,-40.739998
1774511863801,-1.2018893,-0.009576807,9.677363,-0.04520403,0.08552113,-0.4251622,-6.8999996,4.74,-41.04
1774511863830,-1.3694834,0.08140286,9.509769,-0.05497787,-0.21135938,-0.3371976,-7.3199997,4.02,-40.739998
1774511863851,-1.1492168,0.08140286,9.983821,-0.035430185,-0.267559,-0.25778514,-6.8999996,3.8999999,-40.62
1774511863872,-0.94331545,0.22505496,10.275913,0.05497787,-0.15515977,-0.17592919,-7.02,3.6,-40.739998
1774511863892,-0.6703765,0.40701428,9.878476,0.10140363,-0.004886922,-0.16126843,-7.2599998,3.06,-40.559998
1774511863913,-0.6799533,0.40222588,9.404425,0.1282817,0.036651913,-0.19303341,-7.14,3.4199998,-41.04
1774511863933,-0.58897364,0.37349546,9.23683,0.12095132,-0.0036651916,-0.18325958,-8.04,3.3,-41.399998
1774511863954,-0.6464345,0.320823,9.404425,0.15027285,-0.009773844,-0.16493362,-8.16,3.4199998,-41.82
1774511863975,-0.35913026,0.37349546,9.323022,0.23457226,0.08674286,-0.14660765,-8.4,3.06,-41.64
1774511863995,-0.36870706,0.39743748,8.293514,0.25167647,0.15027285,-0.19914207,-8.099999,3.06,-41.04
1774511864016,-0.51235914,0.5410896,8.197746,0.057421334,0.061086524,-0.25045475,-7.3199997,3.06,-41.16
1774511864035,-0.48841715,0.39264908,9.059659,-0.087964594,-0.07086037,-0.27366763,-7.14,2.52,-41.219997
1774511864055,-0.46447513,0.32561144,9.80665,-0.13805555,-0.13927728,-0.27855456,-6.3599997,3.0,-41.46
1774511864075,-0.45010993,0.5554548,10.041282,-0.21013765,-0.11362094,-0.24923302,-6.48,2.52,-42.18
1774511864095,-0.59376204,1.0103531,10.213664,-0.29932398,-0.10995574,-0.22357668,-6.72,2.46,-41.82
1774511864116,-0.56982,1.5849615,10.611102,-0.31398472,-0.052534413,-0.20280726,-6.96,3.0,-41.76
1774511864136,-0.61291564,1.8962077,10.342952,-0.25534168,0.064751714,-0.2125811,-7.98,2.34,-41.64
1774511864157,-0.6751649,1.8148049,9.940725,-0.14172074,-0.0036651916,-0.23335053,-8.04,2.6399999,-41.46
1774511864176,-0.9624691,1.7190368,10.213664,-0.018325957,-0.10629055,-0.21502456,-7.7999997,2.52,-41.1
1774511864197,-0.8571242,1.4796166,9.739613,0.08674286,-0.030543262,-0.172264,-8.04,2.82,-40.98
1774511864217,-0.9816227,1.2785037,9.069236,0.08552113,0.09285152,-0.14172074,-8.04,2.3999999,-40.92
1774511864238,-0.9672575,0.9768343,8.599973,0.064751714,0.1160644,-0.09773844,-7.7999997,2.04,-40.98
1774511864258,-0.866701,1.0007763,8.1642275,0.04520403,0.07452556,-0.04642576,-7.68,2.04,-40.8
1774511864278,-0.7757214,1.0103531,8.039729,-0.014660766,-0.029321533,-0.02076942,-6.7799997,2.58,-40.92
1774511864298,-0.7230489,1.0103531,8.1642275,-0.12095132,-0.112399206,-0.015882496,-6.54,2.58,-40.68
1774511864318,-0.8810662,0.80445176,8.643068,-0.22357668,-0.22602014,0.014660766,-7.08,2.52,-41.1
1774511864338,-0.8523358,0.6560113,9.337387,-0.2687807,-0.312763,0.11484267,-6.7799997,3.1799998,-41.34
1774511864360,-0.6751649,0.8283938,9.825804,-0.21991149,-0.38728857,0.25289822,-7.08,3.1799998,-41.16
1774511864380,-0.21068975,1.4077905,10.261548,-0.16249016,-0.37995818,0.30176744,-7.3799996,3.9599998,-40.92
1774511864401,-0.095768064,1.8195933,10.500969,-0.096516706,-0.26389378,0.24312437,-7.44,4.08,-40.8
1774511864422,-0.36870706,1.8052281,10.218452,-0.018325957,-0.065973446,0.18692477,-8.16,3.72,-40.379997
1774511864443,-0.5506664,1.8291701,9.715671,0.081855945,-0.019547688,0.22235495,-8.58,3.36,-40.559998
1774511864465,-0.48841715,1.7286136,9.715671,0.13439035,-0.0842994,0.2761111,-8.82,3.12,-40.86
1774511864485,-0.51235914,1.4460979,10.213664,0.16737708,-0.029321533,0.34574974,-8.94,3.1799998,-40.62
1774511864506,-0.5554548,1.4891934,10.151415,0.06841691,-0.065973446,0.38362336,-9.24,3.0,-41.1
1774511864527,-0.24899697,1.2880806,10.309433,0.015882496,-0.21746802,0.3640757,-9.66,3.0,-40.98
1774511864548,-0.33039984,0.9576807,11.195287,0.04886922,-0.30787608,0.38240165,-9.54,3.3,-40.739998
1774511864569,-0.33039984,0.4261679,11.971008,0.035430185,-0.16493362,0.43860126,-9.66,3.36,-40.68
1774511864590,-0.41180268,0.25378537,11.654974,-0.02565634,-0.03176499,0.4886922,-9.54,3.4199998,-40.62
1774511864611,-0.05746084,-0.18674773,11.722012,-0.11728613,-0.20769419,0.47158796,-9.599999,3.48,-41.04
1774511864633,-0.06703765,-0.7230489,12.277467,-0.08674286,-0.38240165,0.41416663,-9.78,3.36,-41.16
1774511864654,-0.37828386,-1.1779473,11.81778,0.073303826,-0.1600467,0.44837508,-9.9,3.54,-41.04
1774511864675,-0.2777274,-1.1204864,10.534488,0.28099802,0.056199603,0.5522222,-10.2,3.4199998,-40.8
1774511864695,-0.07182605,-0.80445176,9.279925,0.44226643,0.14660765,0.55833083,-10.139999,3.9599998,-40.44
1774511864716,-0.16280572,-0.8283938,8.030152,0.43127087,0.1600467,0.46914452,-9.599999,4.74,-40.379997
1774511864737,-0.40222588,-1.2258313,7.728483,0.32253686,0.021991149,0.39828414,-9.42,5.16,-40.86
1774511864759,-0.35913026,-1.4700398,8.231265,0.2687807,-0.18081611,0.39706242,-8.34,5.8799996,-41.28
1774511864781,-0.10534488,-1.4987702,8.7771435,0.22479841,-0.22602014,0.36896262,-8.4,5.16,-41.52
1774511864802,-0.11971009,-1.5610195,8.863335,0.14049901,-0.10629055,0.2968805,-8.099999,4.8599997,-41.219997
1774511864823,-0.10534488,-1.460463,9.050082,0.042760566,-0.037873644,0.22357668,-8.58,4.2599998,-40.98
1774511864844,-0.05746084,-1.2497733,9.074024,-0.04642576,-0.056199603,0.07696902,-8.82,3.8999999,-40.62
1774511864864,-0.095768064,-1.2449849,9.107543,-0.095294975,-0.047647487,0.035430185,-9.54,3.6,-40.5
1774511864885,-0.30166942,-1.2593501,9.394848,-0.095294975,-0.047647487,0.035430185,-9.78,3.54,-40.26
1774511864905,-0.25378537,-1.1348516,9.720459,-0.10751228,0.14782938,-0.0012217305,-9.78,3.8999999,-40.5
1774511864925,-0.18674773,-0.8858546,9.323022,-0.11362094,0.15027285,-0.02443461,-9.66,4.2,-40.62
1774511864945,-0.36870706,-0.8714894,8.853758,-0.16982053,0.103847094,0.018325957,-9.12,4.7999997,-40.2
1774511864965,-0.5363012,-0.8283938,8.767567,-0.18692477,0.057421334,0.043982297,-9.059999,5.04,-40.68
1774511864987,-0.45489833,-0.5506664,9.030929,-0.21013765,0.06841691,0.007330383,-8.94,5.16,-40.739998
1774511865008,-0.2777274,-0.29209262,9.457097,-0.23457226,0.06352998,-0.080634214,-9.059999,4.68,-40.68
1774511865029,-0.2777274,-0.29209262,9.457097,-0.25411993,0.08307768,-0.10751228,-9.24,4.5,-41.16
1774511865050,-0.39264908,-0.16759412,9.825804,-0.23701571,0.10995574,-0.096516706,-8.94,4.56,-40.92
1774511865070,-0.38307226,-0.009576807,9.859323,-0.21135938,0.07819075,-0.13683382,-8.4,5.3399997,-40.68
1774511865091,-0.5315128,-0.22026655,10.338163,-0.18325958,0.05375614,-0.17837265,-8.16,5.94,-41.1
1774511865112,-0.62728083,-0.2873042,10.5919485,-0.087964594,0.08674286,-0.1282817,-8.099999,6.48,-41.399998
1774511865132,-0.41180268,-0.047884032,10.510546,-0.021991149,0.14294247,-0.10873401,-8.099999,6.6,-41.879997
1774511865153,-0.24420857,-0.05267244,10.462662,-0.02076942,0.16615535,-0.17592919,-8.28,6.2999997,-42.3
1774511865173,-0.36391866,-0.35434186,10.635044,0.02687807,0.15149458,-0.23090707,-7.9199996,6.3599997,-42.0
1774511865194,-0.49320555,-0.24899697,10.261548,0.16126843,0.23090707,-0.20891592,-7.9199996,6.24,-41.7
1774511865216,-0.35913026,0.16759412,9.409213,0.20891592,0.3494149,-0.19058995,-7.74,6.3599997,-41.28
1774511865237,-0.41180268,0.31124622,9.294291,0.15882497,0.3652974,-0.2883284,-7.5,6.42,-41.1
1774511865257,-0.6560113,-0.08619126,9.844957,0.10873401,0.50701815,-0.3726278,-7.2599998,5.46,-41.46
1774511865282,-1.1300632,-0.12928689,7.2448545,0.18325958,0.50946164,-0.36774087,-6.8399997,5.22,-41.7
1774511865302,-1.0821792,-0.23942018,8.331821,0.004886922,-0.3042109,-0.2687807,-6.42,4.74,-41.76
1774511865322,-0.6464345,-0.090979666,10.295067,0.10873401,-0.49235737,-0.19303341,-6.3599997,4.98,-42.059998
1774511865342,-0.5554548,-0.15322891,9.500193,0.09285152,-0.18325958,-0.19914207,-5.64,5.7,-42.12
1774511865363,-0.31603462,0.04309563,9.409213,-0.021991149,-0.009773844,-0.19303341,-6.18,5.16,-42.3
1774511865382,-0.11492168,0.2633622,9.380483,0.0,0.034208454,-0.22602014,-6.72,4.98,-42.66
1774511865405,-0.10534488,0.44532153,9.050082,-0.08307768,-0.05009095,-0.3921755,-6.7799997,4.56,-42.3
1774511865428,-0.21547815,0.34476504,8.566454,-0.14049901,-0.32498032,-0.38973203,-6.8999996,4.2599998,-41.7
1774511865448,0.02873042,0.33039984,9.299079,-0.14172074,-0.52534413,-0.30909783,-6.7799997,4.44,-41.46
1774511865468,0.45010993,0.60812724,9.23683,-0.06719518,-0.53878313,-0.344528,-8.22,4.08,-42.0
1774511865488,0.49320555,0.6751649,8.863335,-0.05375614,-0.46670106,-0.36896262,-9.66,4.2,-42.78
1774511865508,0.51235914,0.4213795,8.839393,-0.0842994,-0.4007276,-0.32986724,-10.0199995,4.44,-43.02
1774511865529,0.7134721,0.5363012,9.083601,-0.16126843,-0.2919936,-0.25411993,-10.44,4.74,-42.78
1774511865549,0.6991069,0.7565677,9.11712,-0.35796702,-0.1685988,-0.2883284,-9.719999,5.04,-42.059998
1774511865570,0.6512229,0.63206923,9.92636,-0.5766568,-0.20647246,-0.3885103,-8.94,5.3399997,-41.34
1774511865590,0.15322891,0.29688102,11.104307,-0.6365216,-0.24801129,-0.43860126,-9.719999,4.38,-41.16
1774511865610,-0.095768064,0.49799395,11.688493,-0.45204028,-0.16615535,-0.36285394,-9.9,4.68,-41.34
1774511865631,-0.0047884034,0.89064306,11.219229,-0.21746802,0.05131268,-0.29565877,-9.24,5.7,-41.219997
1774511865652,-0.19153613,1.2641385,10.079589,-0.04642576,0.19303341,-0.29443705,-9.96,5.4,-41.16
1774511865673,-0.32561144,1.3072342,9.346964,0.014660766,0.13072516,-0.31642818,-10.08,6.18,-41.82
1774511865693,-0.39264908,1.1109096,9.112331,0.058643065,-0.015882496,-0.30909783,-10.0199995,6.06,-41.94
1774511865714,-0.21547815,0.9528923,9.32781,0.05131268,-0.103847094,-0.26633725,-10.679999,5.58,-41.52
1774511865733,-0.25857377,0.79966336,9.787497,0.07819075,-0.05375614,-0.26267207,-10.26,6.18,-41.76
1774511865801,-0.1388637,0.6895301,8.863335,0.089186326,-0.028099801,-0.02687807,-11.04,5.94,-41.579998
1774511865822,0.07182605,0.7134721,9.208099,0.080634214,-0.2003638,-0.017104227,-10.74,5.8799996,-41.7
1774511865842,0.05267244,0.59855044,9.682152,0.10995574,-0.24312437,0.02687807,-10.559999,6.48,-42.12
1774511865862,0.0,0.6655881,9.916783,0.06841691,-0.065973446,0.118507855,-10.5,6.2999997,-42.059998
1774511865883,0.12928689,0.89543146,9.892841,0.029321533,0.065973446,0.19058995,-10.26,6.2999997,-41.82
1774511865904,0.320823,1.2737153,9.9550905,0.043982297,0.09407325,0.21380283,-10.2,6.42,-41.64
1774511865925,0.17717093,1.3503298,9.543288,0.12217305,0.06719518,0.20769419,-9.78,6.06,-41.219997
1774511865946,0.15801731,1.3599066,9.677363,0.18448131,-0.20891592,0.24678956,-9.78,5.52,-41.34
1774511865966,0.20590134,1.3072342,10.366894,0.22479841,-0.17348573,0.27977628,-10.26,4.98,-41.34
1774511865987,0.062249243,0.8331822,10.620679,0.21868975,-0.13316862,0.41050145,-10.5,4.44,-41.28
1774511866007,0.14844051,0.4405331,10.5919485,0.17592919,-0.22602014,0.5326745,-10.679999,4.62,-40.62
1774511866027,0.17238252,0.25857377,10.520123,0.13194689,-0.3481932,0.6658431,-10.8,4.62,-40.44
1774511866048,-0.0047884034,0.49320555,11.650186,0.172264,-0.32620203,0.77946407,-10.62,4.74,-40.32
1774511866069,0.36391866,-0.019153614,11.463438,0.17837265,-0.17715092,0.8368854,-10.8,5.1,-40.5
1774511866090,0.5554548,-0.24420857,10.783484,0.080634214,-0.017104227,0.8772025,-10.8,4.92,-41.46
1774511866110,1.0199299,-0.36870706,10.85531,-0.02076942,-0.058643065,0.8454375,-10.5,5.3399997,-41.82
1774511866131,1.1444284,-0.40222588,11.180922,0.103847094,-0.105068825,0.70371675,-10.2,6.2999997,-41.94
1774511866151,1.0582372,-0.6943185,10.309433,0.26633725,-0.02687807,0.5656612,-9.9,6.42,-42.0
1774511866172,0.90500826,-1.091756,9.476251,0.24678956,0.04642576,0.44226643,-10.0199995,6.6,-41.579998
1774511866193,0.770933,-1.292869,9.284714,0.18570304,0.05131268,0.3567453,-10.38,6.54,-41.46
1774511866214,0.78050977,-1.3551182,9.270349,0.18936823,0.04153884,0.29443705,-10.139999,6.72,-41.64
1774511866235,0.6799533,-1.340753,9.188946,0.1881465,0.064751714,0.20280726,-10.0199995,6.54,-41.399998
1774511866256,0.30645782,-1.2258313,9.050082,0.19058995,0.11728613,0.14172074,-9.54,6.8399997,-41.64
1774511866277,0.29688102,-1.1348516,8.968679,0.18081611,0.2003638,0.10995574,-9.48,6.48,-41.52
1774511866297,0.12928689,-1.2018893,8.643068,0.15149458,0.29565877,0.061086524,-9.48,5.94,-42.18
1774511866318,0.08619126,-1.2641385,8.614338,0.05497787,0.3481932,0.019547688,-9.78,5.04,-42.36
1774511866339,0.11492168,-1.3215994,8.6095495,-0.08552113,0.3286455,-0.040317107,-8.94,6.18,-42.54
1774511866360,-0.25857377,-1.8339585,8.781932,-0.13439035,0.21868975,-0.05009095,-8.94,5.7599998,-42.3
1774511866380,-0.15801731,-1.6089035,8.853758,-0.16982053,0.119729586,0.040317107,-8.4,6.72,-42.36
1774511866401,0.32561144,-1.0103531,9.3421755,-0.17715092,0.010995574,-0.018325957,-8.04,7.3799996,-42.0
1774511866422,0.23942018,-1.0534488,9.390059,-0.18448131,0.04886922,-0.1685988,-8.16,7.14,-41.399998
1774511866442,-0.29209262,-1.2114661,9.299079,-0.22479841,0.08552113,-0.19058995,-7.9199996,7.62,-41.1
1774511866462,-0.22505496,-0.94331545,9.548077,-0.26389378,0.080634214,-0.112399206,-8.099999,7.3199997,-41.04
1774511866483,-0.033518825,-0.6607997,9.763555,-0.267559,0.065973446,-0.15027285,-7.9199996,7.3799996,-41.34
1774511866504,-0.07182605,-0.7757214,10.041282,-0.23945917,0.04642576,-0.2443461,-8.5199995,6.96,-41.46
1774511866524,-0.32561144,-1.0342951,10.146626,-0.032986723,0.073303826,-0.1685988,-8.4,6.8399997,-41.7
1774511866544,-0.30166942,-0.866701,9.849746,-0.037873644,0.16493362,-0.13194689,-8.82,6.3599997,-41.7
1774511866565,-0.20590134,-0.56982,9.888053,-0.007330383,0.23823744,-0.15027285,-9.0,6.24,-41.76
1774511866586,-0.10534488,-0.2681506,9.605537,0.040317107,0.18203785,-0.2125811,-8.58,6.66,-42.239998
1774511866607,-0.05746084,0.05746084,9.385271,0.07452556,0.029321533,-0.30787608,-8.4,6.96,-42.12
1774511866628,0.009576807,-0.59376204,10.0508585,0.04642576,-0.073303826,-0.3726278,-7.8599997,7.3199997,-42.54
1774511866649,-0.1388637,-0.49320555,10.769119,0.03176499,0.09285152,-0.3848451,-7.9199996,7.14,-42.719997
1774511866670,-0.11971009,-0.2681506,10.261548,0.03176499,0.39584067,-0.41783184,-7.74,6.8399997,-42.78
1774511866691,-0.29688102,-0.272939,9.68694,0.043982297,0.4166101,-0.48380527,-7.7999997,6.96,-43.14
1774511866712,-0.39264908,-0.47884035,9.911995,0.058643065,0.34574974,-0.49602258,-8.16,6.54,-42.899998
1774511866734,-0.7182605,-0.5602432,10.304645,0.12583824,0.408058,-0.4569272,-7.56,6.7799997,-43.26
1774511866756,-0.7182605,-0.51235914,10.515334,0.2321288,0.63041294,-0.34330627,-7.2,6.8399997,-43.2
1774511866777,-0.91937345,-0.023942016,7.536947,0.32986724,0.5363397,-0.28710666,-6.54,6.72,-43.26
1774511866798,-0.5554548,0.20111294,8.183381,0.12461651,-0.19914207,-0.25289822,-5.16,7.2,-43.5
1774511866818,-0.6560113,0.04309563,9.476251,0.22724187,-0.42271876,-0.23090707,-5.22,6.8399997,-43.739998
1774511866838,-0.320823,0.16759412,8.738836,0.16737708,-0.26511553,-0.16982053,-5.3399997,6.24,-43.379997
1774511866858,0.08619126,0.37349546,9.56723,-0.062308256,-0.18081611,-0.23090707,-5.16,5.94,-43.379997
1774511866878,-0.01436521,0.23942018,10.146626,-0.12705997,0.008552114,-0.30909783,-5.52,6.06,-43.26
1774511866899,0.0,0.019153614,9.562442,-0.14660765,0.1881465,-0.34208453,-5.46,6.3599997,-42.899998
1774511866921,-0.25378537,-0.01436521,9.174581,-0.081855945,-0.04886922,-0.30543262,-5.7599998,6.3599997,-43.44
1774511866942,0.12449849,0.21068975,9.591172,0.06719518,-0.29932398,-0.2284636,-5.58,6.6,-42.84
1774511866962,0.18195933,0.49799395,8.992621,0.13072516,-0.1685988,-0.22235495,-5.7,6.24,-42.899998
1774511866983,0.37828386,0.58418524,8.42759,-0.06352998,-0.10140363,-0.23945917,-5.94,5.46,-43.2
1774511867003,0.4405331,0.8283938,9.32781,-0.27122417,-0.10140363,-0.2846632,-5.7599998,5.58,-42.54
1774511867022,0.04309563,0.81402856,9.289502,-0.3371976,-0.16249016,-0.3567453,-6.24,5.58,-42.719997
1774511867042,-0.320823,0.25378537,9.682152,-0.5216789,-0.22479841,-0.28344148,-6.66,5.7,-43.02
1774511867063,-0.2633622,0.50278234,11.9374895,-0.50701815,-0.13683382,-0.10262536,-6.7799997,6.2999997,-43.44
1774511867083,-0.18195933,1.0965444,11.042058,0.043982297,0.31642818,-0.111177474,-7.14,6.2999997,-43.68
1774511867103,-0.29688102,1.3455414,9.763555,0.103847094,0.21746802,-0.119729586,-7.44,6.0,-43.559998
1774511867123,-0.81881696,1.1971009,8.963891,0.103847094,0.21746802,-0.119729586,-6.96,6.24,-43.44
1774511867143,-0.9672575,1.0965444,8.561666,0.112399206,0.07819075,0.013439035,-6.96,6.0,-42.96
1774511867164,-0.18674773,1.5753847,8.418014,-0.058643065,-0.009773844,-0.08552113,-6.72,5.8199997,-42.96
1774511867184,0.12928689,1.8483237,9.107543,-0.017104227,0.02321288,-0.2321288,-6.48,5.7599998,-43.44
1774511867205,-0.46926352,1.3455414,9.279925,0.017104227,-0.014660766,-0.15882497,-6.7799997,5.58,-43.739998
1774511867224,-0.7661445,1.0151415,8.829816,0.017104227,-0.014660766,-0.15882497,-6.42,5.8199997,-44.04
1774511867245,-0.61291564,0.8475474,9.337387,-0.03176499,-0.10629055,0.02687807,-6.6,6.06,-44.28
1774511867265,-0.2777274,1.2976574,9.816227,0.012217305,-0.09773844,0.09040806,-6.8999996,6.42,-44.579998
1774511867285,-0.06703765,1.3742718,10.113108,0.064751714,-0.061086524,0.039095376,-6.8999996,6.8399997,-44.46
1774511867305,-0.22505496,1.1348516,10.472239,0.09896017,0.03176499,0.09407325,-7.08,7.02,-44.52
1774511867325,-0.4213795,0.89064306,10.424355,0.118507855,0.05009095,0.2003638,-7.02,7.2,-44.46
1774511867345,-0.35434186,1.1683705,10.261548,0.19181168,-0.04642576,0.23457226,-7.2599998,6.54,-43.5
1774511867365,-0.02873042,1.4413095,10.055647,0.23457226,-0.17470746,0.17592919,-8.099999,5.7,-42.96
1774511867386,0.15801731,1.5753847,10.007763,0.27488935,-0.26145032,0.13316862,-8.88,5.3399997,-42.36
1774511867405,-0.05746084,1.3455414,10.352529,0.35185838,-0.23579398,0.204029,-9.54,5.1,-42.0
1774511867425,-0.5506664,1.1109096,10.299856,0.38362336,-0.172264,0.40683624,-9.24,5.2799997,-42.42
1774511867446,-0.9576807,1.1971009,9.911995,0.38362336,-0.172264,0.40683624,-8.639999,5.4,-42.84
1774511867467,-0.8571242,1.6567876,9.519346,0.11362094,-0.34697145,0.5705481,-8.22,5.4,-42.84
1774511867488,-0.14844051,1.4700398,10.673351,0.10995574,-0.2919936,0.49357912,-8.04,4.8599997,-43.26
1774511867509,-0.22984336,0.50278234,11.688493,0.19303341,-0.10140363,0.5155703,-7.98,5.16,-43.5
1774511867530,-0.22984336,0.50278234,11.688493,0.21502456,0.013439035,0.59620446,-7.9199996,5.58,-43.739998
1774511867550,0.01436521,0.12928689,10.280702,0.07452556,-0.04886922,0.63407815,-7.68,5.8199997,-43.86
1774511867570,0.45968673,-0.2825158,10.6877165,-0.0012217305,-0.15760323,0.5852089,-7.5,6.18,-44.1
1774511867591,0.49320555,-0.545878,10.893618,0.07819075,-0.19914207,0.53023106,-7.68,6.06,-43.44
1774511867611,0.59855044,-0.90021986,10.58716,0.15882497,-0.06963864,0.5009095,-7.02,6.3599997,-43.14
1774511867632,0.51714754,-0.92416185,10.146626,0.23090707,0.02443461,0.46670106,-7.08,6.18,-43.5
1774511867652,0.45489833,-0.8379706,9.605537,0.32986724,-0.05375614,0.40317106,-7.3799996,6.0,-43.14
1774511867673,0.30645782,-1.0342951,9.131485,0.3494149,-0.15149458,0.29932398,-7.2599998,6.06,-43.32
1774511867694,0.033518825,-1.2114661,9.155427,0.28221974,-0.17715092,0.22235495,-8.34,5.3399997,-43.2
1774511867717,-0.009576807,-1.2401965,9.222465,0.20647246,-0.065973446,0.17592919,-8.76,5.16,-43.26
1774511867738,-0.023942016,-1.2785037,9.141062,0.112399206,0.09407325,0.105068825,-8.639999,4.5,-43.5
1774511867759,-0.1436521,-1.2401965,8.844181,0.06841691,0.17959438,0.039095376,-8.46,3.9599998,-43.559998
1774511867780,-0.2633622,-1.1252748,8.42759,0.089186326,0.08307768,0.012217305,-8.22,3.9599998,-43.739998
1774511867800,-0.05746084,-1.0199299,8.346188,0.02565634,-0.03176499,0.028099801,-7.62,4.44,-43.739998
1774511867822,0.14844051,-0.7469909,8.7532015,-0.040317107,-0.09285152,-0.0061086523,-7.68,4.74,-43.8
1774511867843,-0.023942016,-0.63206923,9.040505,-0.035430185,-0.103847094,-0.095294975,-7.5,5.1,-44.1
1774511867865,-0.2777274,-0.6368576,9.404425,-0.06963864,-0.007330383,-0.09896017,-7.56,4.92,-43.86
1774511867885,-0.1340753,-0.45489833,9.457097,-0.14538592,0.12461651,-0.07452556,-7.9199996,4.8599997,-43.92
1774511867906,0.22026655,0.02873042,9.849746,-0.18325958,0.32253686,-0.204029,-7.7999997,4.38,-43.98
1774511867926,0.18674773,-0.009576807,9.945514,-0.18325958,0.43127087,-0.2443461,-7.68,4.5,-43.379997
1774511867947,-0.47405192,-0.33039984,9.80665,-0.12705997,0.4251622,-0.12339478,-7.5,4.98,-43.559998
1774511867969,-0.50757074,-0.37349546,9.744401,-0.08674286,0.4092797,-0.06841691,-7.2599998,4.98,-43.62
1774511867989,-0.17238252,-0.04309563,9.44752,-0.13072516,0.39706242,-0.14905111,-7.44,4.7999997,-43.559998
1774511868010,-0.45968673,-0.18195933,9.126697,-0.13927728,0.3115413,-0.2321288,-6.72,5.22,-44.04
1774511868031,-0.58418524,-0.34476504,9.303867,-0.103847094,0.10751228,-0.20158553,-6.2999997,5.2799997,-44.219997
1774511868051,-0.33039984,-0.34955344,9.849746,-0.07574729,-0.010995574,-0.18936823,-6.18,5.4,-44.46
1774511868071,-0.39264908,-0.17238252,9.883265,-0.04520403,0.05497787,-0.21868975,-5.64,5.7,-44.76
1774511868092,-0.30166942,-0.12928689,9.892841,-0.08307768,0.1282817,-0.22968534,-6.3599997,4.92,-44.7
1774511868114,-0.19632454,0.14844051,10.534488,-0.09407325,0.18203785,-0.2724459,-6.48,4.8599997,-44.7
1774511868135,-0.2777274,0.21547815,10.314221,0.04886922,0.32498032,-0.31398472,-6.2999997,4.7999997,-44.879997
1774511868156,-0.60812724,0.4357447,9.3661175,0.111177474,0.4373795,-0.30665436,-5.7,5.58,-44.879997
1774511868184,-0.94331545,0.545878,7.771579,-0.02565634,0.10873401,-0.29077184,-5.16,5.8799996,-45.3
1774511868204,0.023942016,0.49320555,10.25676,-0.017104227,-0.32498032,-0.41538838,-4.7999997,6.18,-45.66
1774511868225,-0.23942018,0.4405331,11.209652,0.05375614,0.0012217305,-0.43371433,-5.52,5.16,-45.239998
1774511868246,-0.6607997,0.0,10.43872,0.036651913,0.22235495,-0.32253686,-5.16,5.52,-45.36
1774511868266,-0.5650316,0.34955344,9.931149,0.10629055,0.30665436,-0.312763,-5.2799997,5.58,-45.18
1774511868288,-0.7661445,0.6991069,8.815451,0.13439035,0.28221974,-0.3200934,-5.58,5.2799997,-44.76
1774511868311,-0.7661445,0.6991069,8.815451,0.087964594,-0.0036651916,-0.28221974,-4.74,6.12,-45.0
1774511868332,-0.5746084,0.50757074,9.380483,0.08307768,-0.32742378,-0.20769419,-4.56,6.12,-44.82
1774511868351,-0.17238252,0.44532153,10.055647,0.089186326,-0.25900686,-0.2406809,-5.04,5.04,-44.879997
1774511868372,-0.33997664,0.22984336,9.849746,0.111177474,0.056199603,-0.27977628,-4.8599997,5.04,-45.12
1774511868391,-0.20111294,0.272939,9.26556,0.103847094,0.14172074,-0.23945917,-5.16,4.74,-45.0
1774511868412,0.05267244,0.59855044,9.035717,0.07941248,0.10629055,-0.23701571,-5.04,4.2599998,-45.12
1774511868432,0.047884032,0.770933,8.724471,0.009773844,0.018325957,-0.25167647,-4.08,4.98,-45.059998
1774511868453,0.32561144,0.89064306,9.437943,-0.10873401,-0.062308256,-0.27000242,-4.02,4.8599997,-45.12
1774511868474,0.14844051,0.81881696,9.346964,-0.12950343,-0.039095376,-0.31398472,-3.84,4.2599998,-45.539997
1774511868494,-0.06703765,0.9624691,9.433155,-0.21135938,-0.064751714,-0.2883284,-4.14,4.44,-45.36
1774511868514,-0.32561144,1.2354081,9.969456,-0.25778514,-0.09407325,-0.27000242,-4.08,5.04,-44.94
1774511868534,-0.34955344,1.3503298,10.175357,-0.17715092,-0.06841691,-0.26267207,-3.78,5.3399997,-44.76
1774511868554,-0.49320555,1.3503298,9.768343,-0.10629055,-0.07696902,-0.2883284,-3.6599998,6.06,-44.34
1774511868575,-0.48362875,1.5275006,9.998186,-0.12095132,-0.07574729,-0.3005457,-3.3,6.6,-44.82
1774511868595,-0.49320555,1.6232687,9.969456,-0.089186326,0.028099801,-0.34330627,-3.72,6.12,-45.18
1774511868616,-0.56982,1.4173675,9.543288,-0.039095376,0.07819075,-0.37751472,-3.6599998,6.42,-45.12
1774511868637,-0.8379706,1.2306197,9.409213,0.010995574,0.09773844,-0.32620203,-4.5,6.0,-45.3
1774511868657,-0.8283938,1.1109096,8.930372,0.034208454,0.13316862,-0.25045475,-4.92,5.58,-45.12
1774511868678,-0.78050977,1.1540052,8.662222,0.017104227,0.09285152,-0.1881465,-5.22,4.98,-45.18
1774511868698,-0.7278373,1.13964,8.542512,0.002443461,0.04153884,-0.14538592,-5.22,4.98,-45.18
1774511868718,-0.92416185,1.0247183,8.461109,-0.04520403,0.015882496,-0.0842994,-4.56,5.3399997,-45.48
1774511868739,-0.94331545,1.1061212,8.552089,-0.10629055,-0.04642576,0.012217305,-4.08,5.64,-45.78
1774511868759,-1.0151415,1.1779473,9.045294,-0.13927728,-0.14049901,0.080634214,-3.84,5.7,-46.02
1774511868780,-1.1971009,1.0773908,9.509769,-0.15393804,-0.15271631,0.15882497,-4.2,5.64,-45.78
1774511868799,-1.0007763,1.067814,9.892841,-0.16737708,-0.10751228,0.2932153,-4.38,5.94,-45.239998
1774511868820,-0.8810662,1.460463,9.888053,-0.12095132,-0.087964594,0.41050145,-4.92,5.46,-45.239998
1774511868839,-0.62249243,1.7621324,10.070012,-0.036651913,-0.15393804,0.47403142,-4.7999997,5.7599998,-45.0
1774511868860,-0.56982,1.9871874,10.0508585,0.06719518,-0.13683382,0.47769663,-4.56,6.18,-45.0
1774511868880,-0.5554548,2.0254946,9.878476,0.07452556,-0.036651913,0.48624873,-4.56,6.12,-45.36
1774511868900,-0.50757074,1.9632454,9.911995,0.056199603,-0.0036651916,0.49480084,-4.38,6.48,-45.36
1774511868921,-0.47405192,1.9297266,10.084377,0.07819075,-0.035430185,0.49968776,-4.2599998,6.8399997,-45.66
1774511868942,-0.49320555,2.1068976,10.036493,0.10995574,-0.004886922,0.49846604,-4.3199997,6.96,-45.719997
1774511868964,-0.2777274,1.733402,10.290278,0.039095376,-0.047647487,0.4605924,-4.62,6.48,-45.059998
1774511868985,-0.38307226,1.2449849,11.21444,-0.004886922,-0.09162979,0.43004912,-4.8599997,6.66,-44.94
1774511869007,-0.35434186,0.7182605,11.468226,-0.008552114,-0.029321533,0.4569272,-5.4,6.06,-44.46
1774511869026,-0.090979666,0.21547815,11.640609,-0.030543262,-0.047647487,0.51923543,-5.4,6.12,-44.34
1774511869047,0.38307226,0.19153613,11.678916,-0.06841691,-0.09162979,0.4007276,-4.98,6.72,-45.059998
1774511869068,0.5506664,-0.062249243,11.425131,-0.036651913,-0.19058995,0.2565634,-4.68,6.96,-45.36
1774511869087,0.60812724,-0.6560113,11.884817,0.10140363,-0.013439035,0.21746802,-4.2599998,7.56,-45.539997
1774511869108,0.22505496,-1.1013328,11.477803,0.13927728,0.23701571,0.27855456,-4.92,7.2,-45.66
1774511869129,0.16759412,-1.2689269,9.883265,0.08674286,0.17104226,0.27855456,-5.22,7.14,-45.6
1774511869150,0.2633622,-0.7038953,9.217676,0.18325958,-0.036651913,0.14660765,-5.4,6.8399997,-45.84
1774511869171,-0.2777274,-1.1061212,8.853758,0.24801129,-0.09040806,-0.014660766,-5.4,6.66,-45.78
1774511869192,-0.8283938,-1.6376339,8.829816,0.16982053,-0.07819075,-0.04153884,-4.92,7.02,-46.079998
1774511869213,-0.9864111,-1.7525556,9.232041,0.11728613,-0.030543262,0.030543262,-4.92,6.72,-46.02
1774511869234,-0.78529817,-1.6328455,9.141062,0.089186326,0.073303826,0.057421334,-4.44,7.2,-46.079998
1774511869255,-0.7374141,-1.5753847,8.935161,0.06963864,0.09162979,0.009773844,-4.62,6.8399997,-46.079998
1774511869277,-0.9672575,-1.541866,8.762778,0.06352998,0.07574729,-0.017104227,-4.7999997,6.48,-45.78
1774511869298,-1.0390835,-1.4700398,8.810662,0.039095376,0.081855945,0.004886922,-5.04,5.7599998,-45.719997
1774511869318,-0.89543146,-1.2497733,8.719683,-0.015882496,0.15760323,0.04153884,-4.92,5.16,-45.539997
1774511869339,-0.6943185,-0.9672575,8.719683,-0.13805555,0.16493362,0.035430185,-4.8599997,4.7999997,-45.719997
1774511869359,-0.6991069,-0.92895025,8.983045,-0.15882497,0.015882496,0.018325957,-4.44,5.16,-45.899998
1774511869380,-0.49799395,-0.79487497,9.346964,-0.15393804,-0.0842994,0.035430185,-4.44,4.8599997,-45.84
1774511869400,-0.3878607,-0.51235914,9.983821,-0.17104226,-0.008552114,0.019547688,-4.68,5.22,-46.079998
1774511869421,-0.38307226,-0.22505496,9.840169,-0.1441642,0.19181168,-0.004886922,-4.14,6.0,-45.84
1774511869442,-0.50757074,-0.25857377,9.260772,-0.14538592,0.21746802,-0.040317107,-4.62,5.7,-45.96
1774511869463,-0.62249243,-0.33039984,9.399636,-0.1966986,0.06963864,-0.05009095,-4.92,5.7,-45.84
1774511869485,-0.5554548,-0.2633622,9.998186,-0.16371189,-0.014660766,-0.065973446,-4.2,6.54,-46.2
1774511869506,-0.5363012,-0.30166942,10.060435,-0.105068825,0.06963864,-0.1160644,-4.56,6.24,-46.379997
1774511869527,-0.8331822,-0.45489833,9.691729,-0.10262536,0.08552113,-0.12950343,-4.2,6.6,-46.44
1774511869548,-0.82360536,-0.39743748,9.667787,-0.1001819,0.06352998,-0.1441642,-4.02,6.8999996,-46.5
1774511869569,-0.58897364,-0.30645782,9.9790325,-0.036651913,0.10873401,-0.18081611,-4.44,6.3599997,-46.32
1774511869590,-0.8283938,-0.110133275,9.701305,0.0036651916,0.16126843,-0.18448131,-4.08,6.54,-46.5
1774511869612,-0.6703765,-0.272939,9.883265,-0.035430185,0.119729586,-0.17715092,-3.54,7.2,-46.5
1774511869633,-0.6943185,-0.0047884034,10.357317,-0.004886922,0.15515977,-0.15882497,-3.6599998,7.02,-46.739998
1774511869653,-0.51235914,0.30645782,9.873688,0.08552113,0.3323107,-0.17715092,-3.1799998,6.8999996,-46.32
1774511869673,-0.6607997,0.39743748,9.275137,0.05131268,0.36896262,-0.27000242,-3.06,7.2599998,-46.32
1774511869693,-0.93852705,0.076614454,9.888053,-0.015882496,0.2724459,-0.32498032,-3.36,6.8399997,-46.68
1774511869714,-1.3982137,-0.320823,8.327033,0.028099801,-0.04642576,-0.26633725,-2.9399998,7.08,-46.379997
1774511869733,-0.90979666,-0.272939,9.787497,-0.0036651916,-0.41050145,-0.12339478,-2.6399999,7.7999997,-46.92
1774511869755,-0.6464345,-0.12449849,9.787497,0.032986723,-0.19181168,-0.09407325,-2.52,7.68,-47.039997
1774511869775,-0.4165911,-0.019153614,9.289502,-0.021991149,0.013439035,-0.15271631,-2.1,7.9199996,-47.039997
1774511869795,-0.4405331,-0.11971009,9.605537,0.0061086523,0.03176499,-0.22235495,-1.92,7.9199996,-47.399998
1774511869816,-0.50278234,-0.19632454,9.495404,0.034208454,0.11362094,-0.23945917,-2.8799999,7.2599998,-47.16
1774511869837,-0.6368576,-0.090979666,8.882488,-0.036651913,0.13805555,-0.21991149,-2.9399998,6.8399997,-47.28
1774511869868,0.0047884034,0.33997664,8.772355,-0.07819075,-0.675617,-0.24312437,-2.9399998,7.02,-46.62
1774511869888,0.0047884034,0.33997664,8.772355,-0.11484267,-0.74036866,-0.32742378,-2.52,7.2,-46.8
1774511869908,0.272939,0.10055647,9.916783,-0.062308256,-0.2932153,-0.32742378,-2.9399998,7.2599998,-46.68
1774511869929,0.10534488,-0.1340753,10.58716,0.0,0.21502456,-0.25045475,-3.48,7.08,-46.14
1774511869948,-0.22505496,0.062249243,9.208099,-0.1685988,0.2321288,-0.22724187,-4.44,6.42,-45.96
1774511869969,0.023942016,0.6751649,9.035717,-0.21991149,-0.010995574,-0.28955013,-4.5,6.48,-45.84
1774511869989,-0.36870706,0.33039984,9.581595,-0.22479841,-0.22968534,-0.32498032,-4.44,6.96,-45.719997
