ts,ax,ay,az,gx,gy,gz,mx,my,mz
1782298951511,-0.057428,-0.059821,9.976778,0.015301,0.081634,0.004901,10.96875,-16.59375,-53.625004
1782298951534,0.019143,0.425922,9.696817,-0.021351,0.032154,0.009788,12.20625,-16.293751,-54.843754
1782298951537,0.088534,0.397209,10.041383,-0.064722,0.037041,0.022616,12.20625,-16.293751,-54.843754
1782298951538,0.088534,0.397209,10.041383,-0.064722,0.037041,0.022616,10.9875,-16.143751,-54.393753
1782298951545,0.112463,0.346959,10.086847,-0.0916,0.079801,0.040942,10.9875,-16.143751,-54.393753
1782298951549,0.112463,0.346959,10.086847,-0.0916,0.079801,0.040942,10.3125,-14.962501,-53.775002
1782298951553,0.117248,0.301496,9.845171,-0.108094,0.113399,0.058046,10.3125,-14.962501,-53.775002
1782298951559,0.117248,0.301496,9.845171,-0.108094,0.113399,0.058046,10.40625,-14.38125,-52.556252
1782298951562,0.105284,0.282353,9.577176,-0.118478,0.102403,0.071485,10.40625,-14.38125,-52.556252
1782298951569,0.105284,0.282353,9.577176,-0.118478,0.102403,0.071485,12.918751,-14.981251,-54.525002
1782298951571,0.102891,0.267996,9.517355,-0.125198,0.062086,0.077594,12.918751,-14.981251,-54.525002
1782298951587,0.078963,0.227318,9.603497,-0.121533,0.028489,0.079426,12.69375,-16.743752,-55.293751
1782298951589,0.078963,0.227318,9.603497,-0.101374,0.014439,0.077594,12.69375,-16.743752,-55.293751
1782298951590,0.038285,0.212961,9.692031,-0.101374,0.014439,0.077594,13.500001,-14.700001,-54.375004
1782298951597,0.031107,0.227318,9.715959,-0.078772,0.014439,0.07515,13.500001,-14.700001,-54.375004
1782298951598,0.031107,0.227318,9.715959,-0.078772,0.014439,0.07515,12.0375,-15.1125,-55.143753
1782298951605,0.021535,0.277567,9.668103,-0.067166,0.009552,0.072707,12.0375,-15.1125,-55.143753
1782298951609,0.021535,0.277567,9.668103,-0.067166,0.009552,0.072707,12.056251,-15.843751,-55.143753
1782298951614,-0.01675,0.327817,9.625032,-0.072053,0.011995,0.074539,12.056251,-15.843751,-55.143753
1782298951621,-0.01675,0.327817,9.625032,-0.072053,0.011995,0.074539,11.418751,-15.262501,-54.525002
1782298951622,-0.009571,0.349352,9.620246,-0.095876,0.016271,0.087368,11.418751,-15.262501,-54.525002
1782298951631,-0.045464,0.385244,9.622639,-0.125198,0.016882,0.107526,11.85,-16.012501,-53.475002
1782298951640,-0.107677,0.39003,9.641782,-0.145967,0.007719,0.133182,9.675,-14.062501,-53.606251
1782298951650,-0.124427,0.351745,9.625032,-0.153298,-0.009385,0.155784,11.55,-15.4125,-53.925003
1782298951657,-0.07657,0.366102,9.648961,-0.152076,-0.045426,0.171056,11.55,-15.4125,-53.925003
1782298951658,-0.07657,0.366102,9.648961,-0.152076,-0.045426,0.171056,11.55,-15.4125,-53.925003
1782298951665,-0.18664,0.253639,9.651353,-0.141691,-0.093074,0.183273,11.55,-15.4125,-53.925003
1782298951669,-0.18664,0.253639,9.651353,-0.141691,-0.093074,0.183273,13.950001,-15.000001,-54.075001
1782298951674,-0.239282,0.248854,9.560426,-0.128252,-0.121784,0.191825,13.950001,-15.000001,-54.075001
1782298951691,-0.277567,0.244068,9.491034,-0.09832,-0.155993,0.197934,11.25,-15.1125,-54.375004
1782298951698,-0.277567,0.244068,9.491034,-0.09832,-0.155993,0.197934,10.668751,-15.993751,-54.075001
1782298951699,-0.277567,0.244068,9.491034,-0.071442,-0.152938,0.200988,10.668751,-15.993751,-54.075001
1782298951700,-0.318245,0.212961,9.519748,-0.071442,-0.152938,0.200988,10.668751,-15.993751,-54.075001
1782298951709,-0.394816,0.382852,9.550854,-0.039066,-0.127282,0.204654,10.35,-14.212501,-55.275002
1782298951717,-0.488136,0.612563,9.500605,-0.005468,-0.106513,0.213206,10.35,-14.212501,-55.275002
1782298951719,-0.488136,0.612563,9.500605,-0.005468,-0.106513,0.213206,11.53125,-15.8625,-52.875004
1782298951725,-0.488136,0.612563,9.500605,0.02141,-0.115676,0.218093,11.53125,-15.8625,-52.875004
1782298951726,-0.504886,0.76331,9.369,0.02141,-0.115676,0.218093,11.53125,-15.8625,-52.875004
1782298951729,-0.504886,0.76331,9.369,0.02141,-0.115676,0.218093,11.043751,-13.200001,-54.506252
1782298951734,-0.552742,0.835095,9.316358,0.040347,-0.134612,0.218093,11.043751,-13.200001,-54.506252
1782298951740,-0.552742,0.835095,9.316358,0.040347,-0.134612,0.218093,9.39375,-15.093751,-52.856251
1782298951742,-0.552742,0.835095,9.316358,0.047677,-0.141943,0.215649,9.39375,-15.093751,-52.856251
1782298951743,-0.547956,0.851845,9.328322,0.047677,-0.141943,0.215649,9.39375,-15.093751,-52.856251
1782298951749,-0.547956,0.851845,9.328322,0.047677,-0.141943,0.215649,11.1,-14.512501,-55.275002
1782298951751,-0.485743,0.806381,9.438392,0.044012,-0.151717,0.207097,11.1,-14.512501,-55.275002
1782298951759,-0.485743,0.806381,9.438392,0.026908,-0.14683,0.196101,11.00625,-15.825001,-55.443752
1782298951761,-0.452243,0.760918,9.670496,0.026908,-0.14683,0.196101,11.00625,-15.825001,-55.443752
1782298951771,-0.346959,0.693919,9.881064,-0.010355,-0.117508,0.185717,8.83125,-14.493751,-54.825001
1782298951777,-0.346959,0.693919,9.881064,-0.067166,-0.060087,0.177165,8.83125,-14.493751,-54.825001
1782298951792,-0.244068,0.586242,10.060525,-0.067166,-0.060087,0.177165,8.83125,-14.493751,-54.825001
1782298951793,-0.303888,0.284746,10.29263,-0.142302,0.010163,0.177165,10.556251,-15.825001,-55.443752
1782298951795,-0.253639,0.083749,10.563018,-0.217438,0.07919,0.193047,10.556251,-15.825001,-55.443752
1782298951799,-0.253639,0.083749,10.563018,-0.217438,0.07919,0.193047,10.368751,-15.243751,-54.825001
1782298951803,-0.232104,-0.047856,10.862121,-0.271194,0.140888,0.205264,10.368751,-15.243751,-54.825001
1782298951808,-0.232104,-0.047856,10.862121,-0.271194,0.140888,0.205264,10.856251,-13.650001,-52.837502
1782298951813,-0.224925,-0.038285,11.039191,-0.283412,0.191589,0.216871,10.856251,-13.650001,-52.837502
1782298951819,-0.224925,-0.038285,11.039191,-0.283412,0.191589,0.216871,10.14375,-13.33125,-54.656254
1782298951820,-0.301496,0.011964,10.974584,-0.258977,0.228852,0.220536,10.14375,-13.33125,-54.656254
1782298951830,-0.301496,0.011964,10.974584,-0.211941,0.211748,0.213817,10.14375,-13.33125,-54.656254
1782298951831,-0.464208,0.004786,10.692231,-0.211941,0.211748,0.213817,10.368751,-16.275002,-54.093754
1782298951839,-0.583849,-0.050249,10.388342,-0.16185,0.139666,0.193047,11.25,-14.062501,-55.425003
1782298951847,-0.562313,-0.081356,10.153846,-0.116646,0.058421,0.164947,11.25,-14.062501,-55.425003
1782298951849,-0.562313,-0.081356,10.153846,-0.116646,0.058421,0.164947,10.575001,-12.750001,-54.506252
1782298951857,-0.418744,-0.014357,10.058133,-0.078161,0.004665,0.130739,10.575001,-12.750001,-54.506252
1782298951861,-0.418744,-0.014357,10.058133,-0.078161,0.004665,0.130739,9.20625,-14.212501,-53.006252
1782298951871,-0.265603,0.090927,9.983956,-0.053727,-0.007553,0.092254,10.35,-14.212501,-55.275002
1782298951874,-0.165105,0.241675,9.670496,-0.058003,0.013217,0.061711,10.35,-14.212501,-55.275002
1782298951880,-0.177069,0.363709,9.656139,-0.095265,0.023602,0.037887,10.931251,-14.3625,-54.375004
1782298951896,-0.20339,0.545564,9.725531,-0.11237,0.018715,0.028725,10.293751,-14.212501,-53.456253
1782298951897,-0.198604,0.650848,9.672888,-0.097709,0.032765,0.026281,10.293751,-14.212501,-53.456253
1782298951898,-0.198604,0.650848,9.672888,-0.097709,0.032765,0.026281,8.8125,-14.19375,-54.525002
1782298951906,-0.208176,0.691526,9.47907,-0.065333,0.060253,0.026281,8.8125,-14.19375,-54.525002
1782298951908,-0.208176,0.691526,9.47907,-0.065333,0.060253,0.026281,10.89375,-14.08125,-53.906254
1782298951914,-0.224925,0.772882,9.318751,-0.025016,0.069416,0.031168,10.89375,-14.08125,-53.906254
1782298951920,-0.224925,0.772882,9.318751,-0.025016,0.069416,0.031168,8.34375,-13.593751,-54.675003
1782298951923,-0.253639,0.863809,9.246966,0.023242,0.060253,0.038498,8.34375,-13.593751,-54.675003
1782298951929,-0.253639,0.863809,9.246966,0.023242,0.060253,0.038498,9.20625,-13.462501,-53.756252
1782298951931,-0.253639,0.863809,9.246966,0.073944,0.049869,0.043996,9.20625,-13.462501,-53.756252
1782298951932,-0.258425,0.916451,9.175182,0.073944,0.049869,0.043996,9.20625,-13.462501,-53.756252
1782298951939,-0.258425,0.916451,9.175182,0.073944,0.049869,0.043996,9.356251,-14.062501,-53.156254
1782298951940,-0.227318,0.935594,9.156039,0.121592,0.03643,0.048883,9.356251,-14.062501,-53.156254
1782298951949,-0.162712,0.957129,9.146468,0.158854,0.019326,0.050105,11.55,-14.08125,-55.425003
1782298951957,-0.090927,0.9667,9.227824,0.174126,0.002221,0.048883,11.55,-14.08125,-55.425003
1782298951958,-0.090927,0.9667,9.227824,0.174126,0.002221,0.048883,8.90625,-14.062501,-53.156254
1782298951965,-0.038285,0.978664,9.366607,0.16985,-0.008163,0.04705,8.90625,-14.062501,-53.156254
1782298951968,-0.038285,0.978664,9.366607,0.16985,-0.008163,0.04705,10.481251,-14.6625,-54.675003
1782298951974,0.028714,0.959522,9.471892,0.143583,-0.009385,0.04705,10.481251,-14.6625,-54.675003
1782298951979,0.028714,0.959522,9.471892,0.143583,-0.009385,0.04705,9.675,-13.33125,-54.356251
1782298951982,0.052642,0.928415,9.593925,0.096546,-0.011829,0.048272,9.675,-13.33125,-54.356251
1782298951999,0.040678,0.894916,9.715959,0.042179,-0.012439,0.052548,10.275001,-13.781251,-53.756252
1782298952000,0.026321,0.847059,9.847564,-0.00669,-0.01305,0.0611,10.275001,-13.781251,-53.756252
1782298952009,0.026321,0.847059,9.847564,-0.036622,-0.014272,0.069652,10.275001,-13.781251,-53.756252
1782298952010,-0.062213,0.746561,9.986349,-0.036622,-0.014272,0.069652,8.625,-14.343751,-53.156254
1782298952017,-0.145962,0.653241,10.05574,-0.045785,-0.016105,0.078205,8.625,-14.343751,-53.156254
1782298952019,-0.145962,0.653241,10.05574,-0.045785,-0.016105,0.078205,10.14375,-13.63125,-54.356251
1782298952026,-0.222533,0.638884,10.070097,-0.038455,-0.025268,0.07515,10.14375,-13.63125,-54.356251
1782298952029,-0.222533,0.638884,10.070097,-0.038455,-0.025268,0.07515,9.975,-13.481251,-53.756252
1782298952034,-0.222533,0.638884,10.070097,-0.018907,-0.049702,0.065987,9.975,-13.481251,-53.756252
1782298952035,-0.291924,0.655633,9.998313,-0.018907,-0.049702,0.065987,9.975,-13.481251,-53.756252
1782298952040,-0.291924,0.655633,9.998313,-0.018907,-0.049702,0.065987,10.1625,-13.33125,-55.125004
1782298952043,-0.339781,0.715454,9.950456,-0.003636,-0.075359,0.052548,10.1625,-13.33125,-55.125004
1782298952049,-0.339781,0.715454,9.950456,-0.003636,-0.075359,0.052548,8.71875,-13.181251,-52.987503
1782298952051,-0.339781,0.715454,9.950456,0.009192,-0.094295,0.034833,8.71875,-13.181251,-52.987503
1782298952053,-0.363709,0.756132,9.950456,0.009192,-0.094295,0.034833,8.71875,-13.181251,-52.987503
1782298952059,-0.363709,0.756132,9.950456,0.009192,-0.094295,0.034833,11.4375,-12.918751,-53.137501
1782298952060,-0.363709,0.756132,9.950456,0.015912,-0.106513,0.014064,11.4375,-12.918751,-53.137501
1782298952061,-0.361316,0.765703,9.969598,0.015912,-0.106513,0.014064,11.4375,-12.918751,-53.137501
1782298952071,-0.337388,0.765703,9.97917,0.016523,-0.105902,-0.006095,8.118751,-15.656251,-55.293751
1782298952078,-0.339781,0.770489,9.983956,0.018355,-0.088798,-0.020756,8.118751,-15.656251,-55.293751
1782298952079,-0.339781,0.770489,9.983956,0.018355,-0.088798,-0.020756,8.025001,-13.743751,-54.056252
1782298952086,-0.349352,0.81356,9.969598,0.028129,-0.071693,-0.032362,8.025001,-13.743751,-54.056252
1782298952089,-0.349352,0.81356,9.969598,0.028129,-0.071693,-0.032362,9.69375,-14.062501,-53.906254
1782298952109,-0.351745,0.851845,9.916956,0.05012,-0.057033,-0.041525,9.69375,-14.062501,-53.906254
1782298952110,-0.368495,0.897308,9.842779,0.084329,-0.039317,-0.050077,8.2875,-14.062501,-52.537502
1782298952112,-0.382852,0.937986,9.780566,0.122813,-0.033209,-0.058629,8.2875,-14.062501,-52.537502
1782298952119,-0.382852,0.937986,9.780566,0.122813,-0.033209,-0.058629,8.2875,-14.062501,-52.537502
1782298952120,-0.37328,0.959522,9.708781,0.157022,-0.036263,-0.069014,8.2875,-14.062501,-52.537502
1782298952129,-0.37328,0.959522,9.708781,0.180235,-0.043594,-0.075733,8.2875,-14.062501,-52.537502
1782298952130,-0.323031,1.002593,9.66571,0.180235,-0.043594,-0.075733,8.8125,-14.493751,-54.525002
1782298952137,-0.267996,1.062413,9.651353,0.196728,-0.038096,-0.081231,8.8125,-14.493751,-54.525002
1782298952139,-0.267996,1.062413,9.651353,0.196728,-0.038096,-0.081231,9.375,-12.88125,-54.656254
1782298952146,-0.263211,1.091127,9.627425,0.205891,-0.029544,-0.086118,9.375,-12.88125,-54.656254
1782298952149,-0.263211,1.091127,9.627425,0.205891,-0.029544,-0.086118,8.34375,-14.343751,-53.906254
1782298952155,-0.27996,1.079163,9.663317,0.205891,-0.029544,-0.086118,8.34375,-14.343751,-53.906254
1782298952156,-0.27996,1.079163,9.663317,0.208334,-0.022824,-0.095281,8.34375,-14.343751,-53.906254
1782298952160,-0.27996,1.079163,9.663317,0.208334,-0.022824,-0.095281,9.5625,-14.94375,-53.775002
1782298952163,-0.27996,1.079163,9.663317,0.202837,-0.023435,-0.105055,9.5625,-14.94375,-53.775002
1782298952164,-0.275175,1.071985,9.689639,0.202837,-0.023435,-0.105055,9.5625,-14.94375,-53.775002
1782298952169,-0.275175,1.071985,9.689639,0.202837,-0.023435,-0.105055,9.375,-14.062501,-53.606251
1782298952172,-0.20339,1.062413,9.684853,0.19123,-0.020992,-0.11544,9.375,-14.062501,-53.606251
1782298952179,-0.20339,1.062413,9.684853,0.19123,-0.020992,-0.11544,6.375,-15.056251,-53.156254
1782298952180,-0.160319,1.091127,9.648961,0.178402,-0.011829,-0.122159,6.375,-15.056251,-53.156254
1782298952189,-0.160319,1.091127,9.648961,0.178402,-0.011829,-0.122159,8.53125,-15.225,-54.525002
1782298952190,-0.162712,1.07677,9.663317,0.164352,-0.016105,-0.125213,8.53125,-15.225,-54.525002
1782298952207,-0.224925,1.040878,9.768602,0.147859,-0.032598,-0.120326,8.400001,-15.375001,-54.675003
1782298952208,-0.193819,1.038485,9.919349,0.132587,-0.046037,-0.108109,8.400001,-15.375001,-54.675003
1782298952209,-0.193819,1.038485,9.919349,0.132587,-0.046037,-0.108109,7.8,-16.25625,-54.093754
1782298952214,-0.193819,1.038485,9.919349,0.121592,-0.040539,-0.099557,7.8,-16.25625,-54.093754
1782298952215,-0.174676,1.024128,10.048562,0.121592,-0.040539,-0.099557,7.8,-16.25625,-54.093754
1782298952220,-0.174676,1.024128,10.048562,0.121592,-0.040539,-0.099557,6.24375,-15.20625,-53.475002
1782298952224,-0.212961,1.040878,10.029419,0.117316,-0.028322,-0.092227,6.24375,-15.20625,-53.475002
1782298952229,-0.212961,1.040878,10.029419,0.117316,-0.028322,-0.092227,8.8125,-14.94375,-53.775002
1782298952232,-0.256032,1.019342,9.981563,0.112429,-0.025268,-0.082453,8.8125,-14.94375,-53.775002
1782298952239,-0.256032,1.019342,9.981563,0.112429,-0.025268,-0.082453,8.75625,-14.94375,-52.256252
1782298952241,-0.248854,0.993021,9.986349,0.109985,-0.03382,-0.069625,8.75625,-14.94375,-52.256252
1782298952251,-0.284746,0.9667,10.115561,0.113039,-0.04848,-0.058629,7.575,-14.625001,-53.606251
1782298952258,-0.342174,0.949951,10.273488,0.122813,-0.058254,-0.049466,7.575,-14.625001,-53.606251
1782298952259,-0.342174,0.949951,10.273488,0.122813,-0.058254,-0.049466,7.03125,-15.656251,-54.075001
1782298952267,-0.397209,0.926022,10.335701,0.133809,-0.064363,-0.04519,7.03125,-15.656251,-54.075001
1782298952269,-0.397209,0.926022,10.335701,0.133809,-0.064363,-0.04519,8.6625,-14.64375,-54.375004
1782298952275,-0.401994,0.885344,10.371593,0.139307,-0.068028,-0.042136,8.6625,-14.64375,-54.375004
1782298952280,-0.401994,0.885344,10.371593,0.139307,-0.068028,-0.042136,8.00625,-16.087502,-55.743752
1782298952284,-0.394816,0.782453,10.417057,0.136863,-0.070472,-0.040914,8.00625,-16.087502,-55.743752
1782298952289,-0.394816,0.782453,10.417057,0.136863,-0.070472,-0.040914,9.01875,-16.106251,-54.693752
1782298952291,-0.394816,0.782453,10.417057,0.133809,-0.073526,-0.039081,9.01875,-16.106251,-54.693752
1782298952292,-0.399601,0.660419,10.563018,0.133809,-0.073526,-0.039081,9.01875,-16.106251,-54.693752
1782298952303,-0.409173,0.622134,10.756837,0.140528,-0.067417,-0.039692,8.025001,-15.675,-52.256252
1782298952309,-0.409173,0.622134,10.756837,0.165574,-0.044815,-0.047023,8.025001,-15.675,-52.256252
1782298952310,-0.42353,0.612563,10.866908,0.165574,-0.044815,-0.047023,6.975,-15.20625,-53.006252
1782298952317,-0.42353,0.612563,10.866908,0.201615,-0.025878,-0.064127,6.975,-15.20625,-53.006252
1782298952318,-0.440279,0.650848,10.804694,0.201615,-0.025878,-0.064127,6.975,-15.20625,-53.006252
1782298952319,-0.440279,0.650848,10.804694,0.201615,-0.025878,-0.064127,6.99375,-14.906251,-54.075001
1782298952326,-0.440279,0.650848,10.804694,0.237045,-0.030765,-0.091616,6.99375,-14.906251,-54.075001
1782298952327,-0.473779,0.643669,10.64916,0.237045,-0.030765,-0.091616,6.99375,-14.906251,-54.075001
1782298952329,-0.473779,0.643669,10.64916,0.237045,-0.030765,-0.091616,7.575,-14.325001,-53.606251
1782298952335,-0.507278,0.59342,10.558233,0.263312,-0.052146,-0.122159,7.575,-14.325001,-53.606251
1782298952340,-0.507278,0.59342,10.558233,0.263312,-0.052146,-0.122159,6.35625,-14.625001,-53.156254
1782298952345,-0.490529,0.5001,10.584554,0.283471,-0.075359,-0.151481,6.35625,-14.625001,-53.156254
1782298952349,-0.490529,0.5001,10.584554,0.283471,-0.075359,-0.151481,7.0125,-16.6875,-52.725002
1782298952353,-0.490529,0.5001,10.584554,0.305462,-0.087576,-0.175304,7.0125,-16.6875,-52.725002
1782298952354,-0.42353,0.445065,10.641982,0.305462,-0.087576,-0.175304,7.0125,-16.6875,-52.725002
1782298952358,-0.42353,0.445065,10.641982,0.305462,-0.087576,-0.175304,6.45,-17.56875,-52.893753
1782298952361,-0.332602,0.48335,10.610875,0.334173,-0.079024,-0.196074,6.45,-17.56875,-52.893753
1782298952370,-0.260818,0.648455,10.481662,0.365327,-0.050924,-0.211345,7.29375,-16.25625,-52.256252
1782298952379,-0.205783,0.827917,10.25913,0.365327,-0.050924,-0.211345,7.29375,-16.25625,-52.256252
1782298952380,-0.205783,0.827917,10.25913,0.390372,-0.022824,-0.221119,5.4375,-14.906251,-52.256252
1782298952387,-0.107677,1.012164,10.094025,0.392816,-0.015494,-0.224173,5.4375,-14.906251,-52.256252
1782298952389,-0.107677,1.012164,10.094025,0.392816,-0.015494,-0.224173,5.34375,-16.06875,-53.175003
1782298952395,-0.107677,1.012164,10.094025,0.362883,-0.020381,-0.230893,5.34375,-16.06875,-53.175003
1782298952397,0.002393,1.031307,10.010276,0.362883,-0.020381,-0.230893,5.34375,-16.06875,-53.175003
1782298952400,0.002393,1.031307,10.010276,0.362883,-0.020381,-0.230893,7.78125,-17.4375,-52.275002
1782298952419,0.196211,0.696311,10.316558,0.199782,0.013217,-0.24311,6.4125,-17.118752,-52.575001
1782298952421,0.222533,0.464208,10.574983,0.078831,0.047425,-0.247386,6.4125,-17.118752,-52.575001
1782298952429,0.222533,0.464208,10.574983,0.078831,0.047425,-0.247386,5.9625,-15.937501,-53.775002
1782298952430,0.222533,0.212961,10.816658,-0.05617,0.092629,-0.243721,5.9625,-15.937501,-53.775002
1782298952439,0.205783,-0.066999,10.936299,-0.182008,0.145164,-0.237613,7.275,-14.475,-53.456253
1782298952446,0.12682,-0.272782,10.847765,-0.273027,0.186092,-0.227839,7.275,-14.475,-53.456253
1782298952448,0.12682,-0.272782,10.847765,-0.273027,0.186092,-0.227839,4.96875,-14.00625,-52.856251
1782298952455,0.023928,-0.39003,10.814265,-0.314566,0.20625,-0.220508,4.96875,-14.00625,-52.856251
1782298952459,0.023928,-0.39003,10.814265,-0.314566,0.20625,-0.220508,6.24375,-15.656251,-53.025002
1782298952463,0.023928,-0.39003,10.814265,-0.299294,0.194033,-0.219287,6.24375,-15.656251,-53.025002
1782298952464,-0.105284,-0.404387,10.804694,-0.299294,0.194033,-0.219287,6.24375,-15.656251,-53.025002
1782298952470,-0.105284,-0.404387,10.804694,-0.299294,0.194033,-0.219287,4.575,-17.118752,-51.825001
1782298952472,-0.222533,-0.40678,10.706588,-0.249814,0.145775,-0.219287,4.575,-17.118752,-51.825001
1782298952479,-0.222533,-0.40678,10.706588,-0.249814,0.145775,-0.219287,6.225,-15.20625,-53.006252
1782298952480,-0.222533,-0.40678,10.706588,-0.192393,0.084688,-0.221119,6.225,-15.20625,-53.006252
1782298952481,-0.315853,-0.421137,10.603696,-0.192393,0.084688,-0.221119,6.225,-15.20625,-53.006252
1782298952490,-0.39003,-0.425922,10.493627,-0.142913,0.033986,-0.22173,6.20625,-14.906251,-52.706253
1782298952500,-0.387637,-0.416351,10.381164,-0.100152,-0.003887,-0.219897,4.575,-15.0375,-53.925003
1782298952516,-0.184247,-0.291924,10.034205,-0.026849,-0.032598,-0.20768,5.23125,-12.843751,-52.537502
1782298952519,-0.184247,-0.291924,10.034205,-0.026849,-0.032598,-0.20768,4.21875,-14.306251,-52.856251
1782298952523,-0.131605,-0.189033,9.857136,-0.000581,-0.015494,-0.196074,4.21875,-14.306251,-52.856251
1782298952529,-0.131605,-0.189033,9.857136,-0.000581,-0.015494,-0.196074,5.53125,-12.843751,-52.537502
1782298952532,-0.11007,-0.122034,9.696817,0.023242,0.005276,-0.17958,5.53125,-12.843751,-52.537502
1782298952538,-0.11007,-0.122034,9.696817,0.023242,0.005276,-0.17958,4.725,-14.137501,-54.525002
1782298952540,-0.11007,-0.122034,9.696817,0.043401,0.013828,-0.160033,4.725,-14.137501,-54.525002
1782298952541,-0.09332,-0.062213,9.598712,0.043401,0.013828,-0.160033,4.725,-14.137501,-54.525002
1782298952550,-0.040678,0.043071,9.550854,0.065392,0.013217,-0.143539,5.1375,-13.425,-54.056252
1782298952559,-0.040678,0.043071,9.550854,0.091048,-0.000833,-0.133155,5.1375,-13.425,-54.056252
1782298952560,-0.153141,-0.028714,9.558033,0.091048,-0.000833,-0.133155,5.1375,-13.425,-54.056252
1782298952561,-0.153141,-0.028714,9.558033,0.091048,-0.000833,-0.133155,5.30625,-15.056251,-52.856251
1782298952566,-0.153141,-0.028714,9.558033,0.124035,-0.011829,-0.111164,5.30625,-15.056251,-52.856251
1782298952567,-0.064606,0.047856,9.555641,0.124035,-0.011829,-0.111164,5.30625,-15.056251,-52.856251
1782298952569,-0.064606,0.047856,9.555641,0.124035,-0.011829,-0.111164,6.1125,-15.7875,-53.625004
1782298952575,-0.064606,0.047856,9.555641,0.158854,-0.012439,-0.105055,6.1125,-15.7875,-53.625004
1782298952576,0.045464,0.179462,9.366607,0.158854,-0.012439,-0.105055,6.1125,-15.7875,-53.625004
1782298952580,0.045464,0.179462,9.366607,0.158854,-0.012439,-0.105055,5.25,-14.325001,-52.087502
1782298952584,0.045464,0.179462,9.366607,0.178402,-0.028322,-0.109331,5.25,-14.325001,-52.087502
1782298952585,0.088534,0.236889,9.112968,0.178402,-0.028322,-0.109331,5.25,-14.325001,-52.087502
1782298952589,0.088534,0.236889,9.112968,0.178402,-0.028322,-0.109331,6.09375,-16.087502,-52.875004
1782298952592,0.088534,0.236889,9.112968,0.175959,-0.04115,-0.120326,6.09375,-16.087502,-52.875004
1782298952593,0.138784,0.301496,8.964613,0.175959,-0.04115,-0.120326,6.09375,-16.087502,-52.875004
1782298952599,0.138784,0.301496,8.964613,0.175959,-0.04115,-0.120326,6.09375,-16.087502,-52.875004
1782298952601,0.172283,0.332602,8.871293,0.150913,-0.040539,-0.138042,6.09375,-16.087502,-52.875004
1782298952618,0.196211,0.311067,8.85215,0.109374,-0.020381,-0.156978,5.00625,-14.306251,-53.906254
1782298952619,0.196211,0.248854,8.892828,0.055007,0.009552,-0.173472,4.55625,-16.06875,-52.106251
1782298952627,0.196211,0.248854,8.892828,0.002473,0.031543,-0.188132,4.55625,-16.06875,-52.106251
1782298952628,0.16989,0.20339,9.014863,0.002473,0.031543,-0.188132,4.55625,-16.06875,-52.106251
1782298952629,0.16989,0.20339,9.014863,0.002473,0.031543,-0.188132,5.11875,-14.45625,-52.256252
1782298952636,0.112463,0.136391,9.153646,-0.040898,0.048036,-0.201571,5.11875,-14.45625,-52.256252
1782298952640,0.112463,0.136391,9.153646,-0.040898,0.048036,-0.201571,4.5375,-14.587501,-52.856251
1782298952644,0.112463,0.136391,9.153646,-0.065944,0.054145,-0.215011,4.5375,-14.587501,-52.856251
1782298952645,0.088534,0.021535,9.268502,-0.065944,0.054145,-0.215011,4.5375,-14.587501,-52.856251
1782298952650,0.088534,0.021535,9.268502,-0.065944,0.054145,-0.215011,4.70625,-15.187501,-53.006252
1782298952653,0.090927,-0.124427,9.388143,-0.07022,0.051091,-0.226617,4.70625,-15.187501,-53.006252
1782298952658,0.090927,-0.124427,9.388143,-0.07022,0.051091,-0.226617,3.675,-15.618751,-53.475002
1782298952661,0.078963,-0.270389,9.558033,-0.060446,0.052312,-0.236391,3.675,-15.618751,-53.475002
1782298952670,0.136391,-0.349352,9.730317,-0.040288,0.053534,-0.245554,5.2875,-14.306251,-53.156254
1782298952679,0.136391,-0.349352,9.730317,-0.014631,0.037651,-0.253495,5.4375,-13.725,-53.756252
1782298952680,0.181855,-0.385244,9.864315,-0.014631,0.037651,-0.253495,5.4375,-13.725,-53.756252
1782298952687,0.244068,-0.344566,9.878671,0.012247,0.026045,-0.255328,5.4375,-13.725,-53.756252
1782298952688,0.244068,-0.344566,9.878671,0.012247,0.026045,-0.255328,4.95,-14.025001,-52.087502
1782298952695,0.287139,-0.265603,9.782959,0.034849,0.025434,-0.24983,4.95,-14.025001,-52.087502
1782298952702,0.287139,-0.265603,9.782959,0.034849,0.025434,-0.24983,6.01875,-14.025001,-52.537502
1782298952716,0.308674,0.043071,9.440785,0.08494,0.078579,-0.212567,5.475,-12.8625,-51.018753
1782298952719,0.308674,0.043071,9.440785,0.08494,0.078579,-0.212567,4.95,-13.275001,-52.837502
1782298952721,0.256032,0.193819,9.270895,0.102044,0.100571,-0.185078,4.95,-13.275001,-52.837502
1782298952729,0.184247,0.344566,9.117754,0.103266,0.110955,-0.1582,3.05625,-15.31875,-53.175003
1782298952740,0.133998,0.480957,8.988541,0.085551,0.106068,-0.131322,4.6875,-13.406251,-53.756252
1782298952747,0.098106,0.547956,8.928721,0.052564,0.099349,-0.105055,4.6875,-13.406251,-53.756252
1782298952748,0.098106,0.547956,8.928721,0.052564,0.099349,-0.105055,3.6375,-14.887501,-52.706253
1782298952755,0.098106,0.547956,8.928721,0.01469,0.098127,-0.084285,3.6375,-14.887501,-52.706253
1782298952756,0.083749,0.59342,8.871293,0.01469,0.098127,-0.084285,3.6375,-14.887501,-52.706253
1782298952759,0.083749,0.59342,8.871293,0.01469,0.098127,-0.084285,5.41875,-14.906251,-51.956253
1782298952764,0.057428,0.641276,8.782758,0.01469,0.098127,-0.084285,5.41875,-14.906251,-51.956253
1782298952765,0.057428,0.641276,8.782758,-0.025627,0.095684,-0.067181,5.41875,-14.906251,-51.956253
1782298952770,0.057428,0.641276,8.782758,-0.025627,0.095684,-0.067181,3.43125,-13.556251,-52.537502
1782298952772,0.057428,0.641276,8.782758,-0.060446,0.095073,-0.053131,3.43125,-13.556251,-52.537502
1782298952773,-0.009571,0.674776,8.699009,-0.060446,0.095073,-0.053131,3.43125,-13.556251,-52.537502
1782298952779,-0.009571,0.674776,8.699009,-0.060446,0.095073,-0.053131,4.2,-13.556251,-52.537502
1782298952781,-0.066999,0.708275,8.651153,-0.086713,0.091408,-0.040303,4.2,-13.556251,-52.537502
1782298952790,-0.066999,0.708275,8.651153,-0.097709,0.081634,-0.029308,4.96875,-14.00625,-52.537502
1782298952791,-0.105284,0.725025,8.600904,-0.097709,0.081634,-0.029308,4.96875,-14.00625,-52.537502
1782298952800,-0.105284,0.725025,8.600904,-0.095265,0.062697,-0.020756,4.96875,-14.00625,-52.537502
1782298952801,-0.148355,0.741775,8.567404,-0.095265,0.062697,-0.020756,5.5125,-15.187501,-54.525002
1782298952807,-0.117248,0.78006,8.548262,-0.085492,0.049258,-0.018312,5.5125,-15.187501,-54.525002
1782298952809,-0.117248,0.78006,8.548262,-0.085492,0.049258,-0.018312,3.73125,-13.25625,-52.537502
1782298952825,-0.088534,0.811167,8.521941,-0.086102,0.059643,-0.021366,3.73125,-13.25625,-52.537502
1782298952826,-0.055035,0.854238,8.517155,-0.10565,0.089575,-0.021366,4.95,-14.306251,-52.087502
1782298952830,-0.055035,0.854238,8.517155,-0.10565,0.089575,-0.021366,5.85,-13.44375,-52.687504
1782298952832,-0.071785,0.844666,8.60569,-0.139859,0.118286,-0.014647,5.85,-13.44375,-52.687504
1782298952838,-0.071785,0.844666,8.60569,-0.139859,0.118286,-0.014647,4.3125,-12.675,-52.687504
1782298952841,-0.0335,0.770489,8.801901,-0.171624,0.131725,-0.000597,4.3125,-12.675,-52.687504
1782298952848,-0.0335,0.770489,8.801901,-0.171624,0.131725,-0.000597,2.3625,-12.806251,-52.837502
1782298952849,-0.0335,0.770489,8.801901,-0.189949,0.134168,0.017118,2.3625,-12.806251,-52.837502
1782298952850,-0.040678,0.710668,9.069897,-0.189949,0.134168,0.017118,2.3625,-12.806251,-52.837502
1782298952859,-0.040678,0.710668,9.069897,-0.192393,0.140277,0.030557,2.3625,-12.806251,-52.837502
1782298952861,-0.117248,0.614955,9.273287,-0.192393,0.140277,0.030557,4.06875,-13.106251,-54.056252
1782298952867,-0.181855,0.535992,9.380964,-0.180786,0.140277,0.036666,4.06875,-13.106251,-54.056252
1782298952869,-0.181855,0.535992,9.380964,-0.180786,0.140277,0.036666,3.45,-13.25625,-53.137501
1782298952876,-0.277567,0.454636,9.457534,-0.153908,0.119507,0.036055,3.45,-13.25625,-53.137501
1782298952879,-0.277567,0.454636,9.457534,-0.153908,0.119507,0.036055,5.11875,-12.675,-54.056252
1782298952884,-0.277567,0.454636,9.457534,-0.11237,0.083466,0.033611,5.11875,-12.675,-54.056252
1782298952885,-0.358923,0.418744,9.550854,-0.11237,0.083466,0.033611,5.11875,-12.675,-54.056252
1782298952889,-0.358923,0.418744,9.550854,-0.11237,0.083466,0.033611,3.6375,-13.687501,-53.756252
1782298952892,-0.358923,0.418744,9.550854,-0.058003,0.046814,0.028114,3.6375,-13.687501,-53.756252
1782298952893,-0.361316,0.380459,9.656139,-0.058003,0.046814,0.028114,3.6375,-13.687501,-53.756252
1782298952899,-0.361316,0.380459,9.656139,-0.058003,0.046814,0.028114,4.06875,-13.70625,-53.456253
1782298952902,-0.378066,0.468993,9.770995,0.010414,0.018104,0.02567,4.06875,-13.70625,-53.456253
1782298952909,-0.378066,0.468993,9.770995,0.010414,0.018104,0.02567,3.31875,-14.137501,-53.006252
1782298952910,-0.265603,0.55992,9.75903,0.076998,0.002221,0.029946,3.31875,-14.137501,-53.006252
1782298952920,-0.136391,0.629312,9.617854,0.125257,-0.007553,0.03239,2.85,-13.387501,-52.987503
1782298952927,-0.055035,0.815953,9.469499,0.147248,-0.012439,0.038498,2.85,-13.387501,-52.987503
1782298952928,-0.055035,0.815953,9.469499,0.147248,-0.012439,0.038498,3.45,-12.50625,-53.906254
1782298952936,-0.021535,0.995414,9.371393,0.145415,-0.006942,0.048883,3.45,-12.50625,-53.906254
1782298952938,-0.021535,0.995414,9.371393,0.145415,-0.006942,0.048883,2.85,-13.387501,-53.456253
1782298952944,0.01675,1.107877,9.24218,0.117926,0.004054,0.056213,2.85,-13.387501,-53.456253
1782298952950,0.01675,1.107877,9.24218,0.117926,0.004054,0.056213,4.10625,-14.437501,-53.456253
1782298952952,0.01675,1.107877,9.24218,0.075166,0.010773,0.061711,4.10625,-14.437501,-53.456253
1782298952953,0.007178,1.155733,9.251751,0.075166,0.010773,0.061711,4.10625,-14.437501,-53.456253
1782298952959,0.007178,1.155733,9.251751,0.075166,0.010773,0.061711,2.41875,-14.56875,-52.556252
1782298952962,-0.031107,1.18684,9.404892,0.034849,0.016271,0.067209,2.41875,-14.56875,-52.556252
1782298952971,-0.050249,1.225125,9.610675,0.013469,0.022991,0.07515,2.64375,-11.775001,-53.137501
1782298952980,-0.050249,1.225125,9.610675,0.016523,0.027267,0.087978,2.64375,-11.775001,-53.137501
1782298952981,-0.057428,1.249053,9.802101,0.016523,0.027267,0.087978,3.58125,-12.375001,-53.437504
1782298952987,-0.043071,1.244268,9.924135,0.036681,0.013217,0.102639,3.58125,-12.375001,-53.437504
1782298952988,-0.043071,1.244268,9.924135,0.036681,0.013217,0.102639,4.33125,-11.94375,-53.737503
1782298952996,-0.026321,1.22034,10.000705,0.061116,-0.020992,0.116689,4.33125,-11.94375,-53.737503
1782298952999,-0.026321,1.22034,10.000705,0.061116,-0.020992,0.116689,2.68125,-13.25625,-52.837502
1782298953004,0.026321,1.213161,10.058133,0.074555,-0.059476,0.129517,2.68125,-13.25625,-52.837502
1782298953009,0.026321,1.213161,10.058133,0.074555,-0.059476,0.129517,4.18125,-12.825001,-53.137501
1782298953013,0.047856,1.227518,10.172988,0.070279,-0.094295,0.13868,4.18125,-12.825001,-53.137501
1782298953019,0.047856,1.227518,10.172988,0.070279,-0.094295,0.13868,2.34375,-12.806251,-52.087502
1782298953035,0.12682,1.148555,10.49602,0.022631,-0.16088,0.153952,2.08125,-14.137501,-52.237503
1782298953040,0.160319,1.081556,10.697016,-0.010355,-0.183482,0.16006,1.78125,-12.637501,-53.437504
1782298953047,0.150748,0.990629,10.828622,-0.044564,-0.18959,0.164337,1.78125,-12.637501,-53.437504
1782298953048,0.150748,0.990629,10.828622,-0.044564,-0.18959,0.164337,0.69375,-13.668751,-51.937504
1782298953055,0.150748,0.990629,10.828622,-0.07755,-0.182871,0.163726,0.69375,-13.668751,-51.937504
1782298953056,0.160319,0.887737,10.890835,-0.07755,-0.182871,0.163726,0.69375,-13.668751,-51.937504
1782298953059,0.160319,0.887737,10.890835,-0.07755,-0.182871,0.163726,3.3375,-13.687501,-54.056252
1782298953064,0.172283,0.825524,10.981762,-0.092211,-0.16821,0.161893,3.3375,-13.687501,-54.056252
1782298953070,0.172283,0.825524,10.981762,-0.092211,-0.16821,0.161893,1.74375,-13.387501,-51.937504
1782298953072,0.172283,0.825524,10.981762,-0.079994,-0.134612,0.161282,1.74375,-13.387501,-51.937504
1782298953073,0.179462,0.787239,11.096618,-0.079994,-0.134612,0.161282,1.74375,-13.387501,-51.937504
1782298953079,0.179462,0.787239,11.096618,-0.079994,-0.134612,0.161282,1.74375,-13.387501,-51.937504
1782298953081,0.155533,0.79681,11.228223,-0.033568,-0.080856,0.163115,1.74375,-13.387501,-51.937504
1782298953089,0.155533,0.79681,11.228223,-0.033568,-0.080856,0.163115,1.95,-13.5375,-53.156254
1782298953090,0.088534,0.789631,11.31915,0.044012,-0.011218,0.169223,1.95,-13.5375,-53.156254
1782298953101,-0.004786,0.777667,11.374185,0.142361,0.046814,0.178386,1.65,-13.2375,-53.606251
1782298953107,-0.004786,0.777667,11.374185,0.251095,0.092629,0.186328,1.65,-13.2375,-53.606251
1782298953108,-0.086142,0.72024,11.424435,0.251095,0.092629,0.186328,1.65,-13.2375,-53.606251
1782298953116,-0.179462,0.672383,11.520148,0.356164,0.125005,0.192436,1.65,-13.2375,-53.606251
1782298953135,-0.244068,0.677169,11.517755,0.526595,0.169598,0.191215,1.18125,-13.968751,-52.556252
1782298953138,-0.244068,0.677169,11.517755,0.526595,0.169598,0.191215,0.7125,-13.06875,-52.987503
1782298953141,-0.387637,0.897308,11.094225,0.576686,0.175096,0.197934,0.7125,-13.06875,-52.987503
1782298953149,-0.387637,0.897308,11.094225,0.576686,0.175096,0.197934,1.70625,-14.55,-53.925003
1782298953150,-0.418744,1.043271,10.718552,0.584627,0.148829,0.208319,1.70625,-14.55,-53.925003
1782298953160,-0.502493,1.208375,10.321344,0.535147,0.094462,0.218703,1.6875,-14.55,-53.606251
1782298953167,-0.540778,1.222732,10.218452,0.414196,0.030321,0.225423,1.6875,-14.55,-53.606251
1782298953168,-0.540778,1.222732,10.218452,0.414196,0.030321,0.225423,-0.7875,-14.1,-52.237503
1782298953175,-0.540778,1.222732,10.218452,0.251095,-0.008163,0.227256,-0.7875,-14.1,-52.237503
1782298953176,-0.636491,1.088734,10.42902,0.251095,-0.008163,0.227256,-0.7875,-14.1,-52.237503
1782298953179,-0.636491,1.088734,10.42902,0.251095,-0.008163,0.227256,0.46875,-14.981251,-52.856251
1782298953184,-0.636491,1.088734,10.42902,0.073944,-0.022213,0.231532,0.46875,-14.981251,-52.856251
1782298953185,-0.732204,0.782453,10.704196,0.073944,-0.022213,0.231532,0.46875,-14.981251,-52.856251
1782298953189,-0.732204,0.782453,10.704196,0.073944,-0.022213,0.231532,-0.3375,-14.250001,-52.087502
1782298953193,-0.820738,0.320638,11.048762,-0.09832,-0.042372,0.238251,-0.3375,-14.250001,-52.087502
1782298953199,-0.820738,0.320638,11.048762,-0.09832,-0.042372,0.238251,0.76875,-14.85,-53.006252
1782298953201,-0.820738,0.320638,11.048762,-0.238819,-0.079024,0.241305,0.76875,-14.85,-53.006252
1782298953203,-0.842274,-0.09332,11.460327,-0.238819,-0.079024,0.241305,0.76875,-14.85,-53.006252
1782298953209,-0.842274,-0.09332,11.460327,-0.238819,-0.079024,0.241305,1.8375,-14.118751,-54.075001
1782298953210,-0.842274,-0.09332,11.460327,-0.33839,-0.14011,0.238862,1.8375,-14.118751,-54.075001
1782298953211,-0.823131,-0.471386,11.68286,-0.33839,-0.14011,0.238862,1.8375,-14.118751,-54.075001
1782298953220,-0.725025,-0.736989,11.840786,-0.386648,-0.209138,0.227866,1.8375,-14.118751,-54.075001
1782298953221,-0.725025,-0.736989,11.840786,-0.386648,-0.209138,0.227866,1.89375,-13.5375,-51.787502
1782298953239,-0.660419,-0.945165,11.388543,-0.302349,-0.276333,0.198545,-0.9375,-13.500001,-52.856251
1782298953244,-0.660419,-0.945165,11.388543,-0.208886,-0.298324,0.182662,-0.9375,-13.500001,-52.856251
1782298953245,-0.59342,-0.914058,10.773587,-0.208886,-0.298324,0.182662,-0.9375,-13.500001,-52.856251
1782298953249,-0.59342,-0.914058,10.773587,-0.208886,-0.298324,0.182662,-0.3,-13.500001,-53.606251
1782298953253,-0.4666,-0.760918,10.168203,-0.11237,-0.321537,0.170445,-0.3,-13.500001,-53.606251
1782298953258,-0.4666,-0.760918,10.168203,-0.11237,-0.321537,0.170445,1.03125,-13.06875,-53.456253
1782298953261,-0.4666,-0.760918,10.168203,-0.023183,-0.321537,0.15945,1.03125,-13.06875,-53.456253
1782298953262,-0.370888,-0.595813,9.754244,-0.023183,-0.321537,0.15945,1.03125,-13.06875,-53.456253
1782298953270,-0.370888,-0.595813,9.754244,-0.023183,-0.321537,0.15945,-0.65625,-13.500001,-52.087502
1782298953271,-0.303888,-0.39003,9.438392,0.057451,-0.284274,0.149065,-0.65625,-13.500001,-52.087502
1782298953280,-0.303888,-0.39003,9.438392,0.130144,-0.211581,0.141735,-0.65625,-13.500001,-52.087502
1782298953281,-0.236889,-0.181855,9.187146,0.130144,-0.211581,0.141735,-0.9375,-14.231251,-52.087502
1782298953288,-0.215354,0.01675,8.998112,0.190619,-0.132169,0.139291,-0.9375,-14.231251,-52.087502
1782298953289,-0.215354,0.01675,8.998112,0.190619,-0.132169,0.139291,-1.74375,-12.468751,-52.087502
1782298953296,-0.215354,0.01675,8.998112,0.232769,-0.071693,0.141124,-1.74375,-12.468751,-52.087502
1782298953297,-0.210568,0.148355,8.773187,0.232769,-0.071693,0.141124,-1.74375,-12.468751,-52.087502
1782298953299,-0.210568,0.148355,8.773187,0.232769,-0.071693,0.141124,-0.91875,-14.231251,-52.856251
1782298953305,-0.210568,0.148355,8.773187,0.243765,-0.035652,0.1454,-0.91875,-14.231251,-52.856251
1782298953306,-0.258425,0.217747,8.651153,0.243765,-0.035652,0.1454,-0.91875,-14.231251,-52.856251
1782298953309,-0.258425,0.217747,8.651153,0.243765,-0.035652,0.1454,-3.05625,-13.33125,-53.006252
1782298953313,-0.37328,0.179462,8.691831,0.228493,-0.013661,0.153952,-3.05625,-13.33125,-53.006252
1782298953319,-0.37328,0.179462,8.691831,0.228493,-0.013661,0.153952,-1.51875,-14.38125,-53.006252
1782298953322,-0.48335,0.086142,8.823436,0.202837,-0.003276,0.167391,-1.51875,-14.38125,-53.006252
1782298953343,-0.569492,-0.122034,9.069897,0.174126,0.004054,0.182662,-2.30625,-14.08125,-52.237503
1782298953347,-0.588634,-0.100499,9.115361,0.119148,0.010163,0.227866,-2.30625,-14.08125,-52.237503
1782298953348,-0.588634,-0.100499,9.115361,0.119148,0.010163,0.227866,-1.36875,-13.931251,-53.156254
1782298953356,-0.569492,0.01675,9.084254,0.097157,0.005276,0.255355,-1.36875,-13.931251,-53.156254
1782298953358,-0.569492,0.01675,9.084254,0.097157,0.005276,0.255355,-0.9375,-14.531251,-52.106251
1782298953365,-0.739382,0.059821,8.962221,0.078831,-0.000222,0.283455,-0.9375,-14.531251,-52.106251
1782298953369,-0.739382,0.059821,8.962221,0.078831,-0.000222,0.283455,-2.41875,-14.512501,-52.856251
1782298953373,-0.741775,0.172283,8.818651,0.052564,-0.013661,0.320107,-2.41875,-14.512501,-52.856251
1782298953379,-0.741775,0.172283,8.818651,0.052564,-0.013661,0.320107,-0.6375,-13.500001,-52.537502
1782298953382,-0.701097,0.133998,8.667903,0.007971,-0.035041,0.335379,-0.6375,-13.500001,-52.537502
1782298953389,-0.701097,0.133998,8.667903,0.007971,-0.035041,0.335379,-2.4,-14.512501,-53.156254
1782298953390,-0.658026,0.0,8.708581,-0.0635,-0.061309,0.337822,-2.4,-14.512501,-53.156254
1782298953400,-0.567099,-0.105284,8.890436,-0.154519,-0.068639,0.332935,-0.8625,-14.962501,-53.625004
1782298953407,-0.567099,-0.105284,8.890436,-0.252258,-0.056422,0.317053,-0.8625,-14.962501,-53.625004
1782298953408,-0.521635,-0.200997,9.175182,-0.252258,-0.056422,0.317053,-3.15,-14.19375,-53.925003
1782298953416,-0.550349,-0.277567,9.440785,-0.339611,-0.036874,0.295062,-3.15,-14.19375,-53.925003
1782298953419,-0.550349,-0.277567,9.440785,-0.339611,-0.036874,0.295062,-2.26875,-14.062501,-53.006252
1782298953425,-0.665205,-0.303888,9.577176,-0.400087,-0.030155,0.27246,-2.26875,-14.062501,-53.006252
1782298953436,-0.739382,-0.275175,9.558033,-0.415359,-0.052146,0.25169,-1.78125,-14.812501,-53.475002
1782298953438,-0.739382,-0.275175,9.558033,-0.415359,-0.052146,0.25169,-0.675,-12.76875,-52.087502
1782298953441,-0.739382,-0.275175,9.558033,-0.383594,-0.094295,0.229088,-0.675,-12.76875,-52.087502
1782298953442,-0.746561,-0.193819,9.414464,-0.383594,-0.094295,0.229088,-0.675,-12.76875,-52.087502
1782298953448,-0.746561,-0.193819,9.414464,-0.383594,-0.094295,0.229088,-2.9625,-12.450001,-52.087502
1782298953450,-0.66999,-0.071785,9.110575,-0.314566,-0.133391,0.200378,-2.9625,-12.450001,-52.087502
1782298953459,-0.66999,-0.071785,9.110575,-0.23271,-0.16088,0.164947,-2.9625,-12.450001,-52.087502
1782298953461,-0.51685,0.07657,8.718153,-0.23271,-0.16088,0.164947,-2.94375,-12.731251,-52.537502
1782298953467,-0.358923,0.236889,8.361621,-0.23271,-0.16088,0.164947,-2.94375,-12.731251,-52.537502
1782298953468,-0.358923,0.236889,8.361621,-0.156963,-0.184092,0.125852,-2.94375,-12.731251,-52.537502
1782298953469,-0.358923,0.236889,8.361621,-0.156963,-0.184092,0.125852,-3.0,-12.150001,-51.318752
1782298953477,-0.212961,0.404387,8.136696,-0.096487,-0.188979,0.089811,-3.0,-12.150001,-51.318752
1782298953479,-0.212961,0.404387,8.136696,-0.096487,-0.188979,0.089811,-2.15625,-14.231251,-51.787502
1782298953485,-0.078963,0.524028,8.076876,-0.059224,-0.177984,0.057435,-2.15625,-14.231251,-51.787502
1782298953490,-0.078963,0.524028,8.076876,-0.059224,-0.177984,0.057435,-3.35625,-12.281251,-53.737503
1782298953493,-0.078963,0.524028,8.076876,-0.038455,-0.144386,0.026892,-3.35625,-12.281251,-53.737503
1782298953494,-0.002393,0.602991,8.136696,-0.038455,-0.144386,0.026892,-3.35625,-12.281251,-53.737503
1782298953499,-0.002393,0.602991,8.136696,-0.038455,-0.144386,0.026892,-4.14375,-12.58125,-52.987503
1782298953502,-0.002393,0.602991,8.136696,-0.032957,-0.090019,-0.000597,-4.14375,-12.58125,-52.987503
1782298953515,0.105284,0.66999,8.256338,-0.040898,-0.028933,-0.026253,-3.5625,-11.700001,-52.837502
1782298953520,0.119641,0.681954,8.332908,-0.064111,0.021769,-0.05191,-3.84375,-13.031251,-51.937504
1782298953527,0.119641,0.681954,8.332908,-0.092211,0.055977,-0.07329,-3.84375,-13.031251,-51.937504
1782298953528,0.078963,0.658026,8.47887,-0.092211,0.055977,-0.07329,-4.125,-13.6125,-52.237503
1782298953544,0.045464,0.579063,8.746867,-0.117867,0.078579,-0.083675,-4.125,-13.6125,-52.237503
1782298953545,0.028714,0.5001,9.086648,-0.123365,0.098127,-0.084285,-4.125,-13.6125,-52.237503
1782298953549,0.028714,0.5001,9.086648,-0.123365,0.098127,-0.084285,-4.14375,-12.281251,-52.987503
1782298953554,0.002393,0.411565,9.325929,-0.100152,0.124394,-0.07329,-4.14375,-12.281251,-52.987503
1782298953559,0.002393,0.411565,9.325929,-0.100152,0.124394,-0.07329,-4.1625,-12.58125,-52.237503
1782298953562,0.002393,0.411565,9.325929,-0.053116,0.148218,-0.058018,-4.1625,-12.58125,-52.237503
1782298953563,-0.021535,0.392423,9.459927,-0.053116,0.148218,-0.058018,-4.1625,-12.58125,-52.237503
1782298953569,-0.021535,0.392423,9.459927,-0.053116,0.148218,-0.058018,-3.4875,-12.712501,-53.906254
1782298953570,-0.021535,0.392423,9.459927,0.007971,0.156159,-0.039081,-3.4875,-12.712501,-53.906254
1782298953571,-0.069392,0.42353,9.426428,0.007971,0.156159,-0.039081,-3.4875,-12.712501,-53.906254
1782298953579,-0.069392,0.42353,9.426428,0.066614,0.143942,-0.020145,-3.4875,-12.712501,-53.906254
1782298953580,-0.088534,0.497707,9.347465,0.066614,0.143942,-0.020145,-3.375,-12.281251,-53.437504
1782298953589,-0.088534,0.497707,9.347465,0.115483,0.116453,-0.004262,-3.375,-12.281251,-53.437504
1782298953590,-0.09332,0.574277,9.328322,0.115483,0.116453,-0.004262,-3.35625,-12.58125,-53.756252
1782298953597,-0.088534,0.68674,9.297216,0.147859,0.085299,0.003068,-3.35625,-12.58125,-53.756252
1782298953599,-0.088534,0.68674,9.297216,0.147859,0.085299,0.003068,-2.55,-11.418751,-51.768753
1782298953605,-0.040678,0.823131,9.211073,0.1558,0.048647,0.005512,-2.55,-11.418751,-51.768753
1782298953610,-0.040678,0.823131,9.211073,0.1558,0.048647,0.005512,-3.375,-11.55,-54.037502
1782298953613,-0.040678,0.823131,9.211073,0.136863,0.022991,1.4e-05,-3.375,-11.55,-54.037502
1782298953614,-0.026321,0.969093,9.139289,0.136863,0.022991,1.4e-05,-3.375,-11.55,-54.037502
1782298953620,-0.026321,0.969093,9.139289,0.136863,0.022991,1.4e-05,-2.475,-12.750001,-52.537502
1782298953622,-0.026321,0.969093,9.139289,0.095935,0.009552,-0.008538,-2.475,-12.750001,-52.537502
1782298953623,-0.052642,1.115055,9.117754,0.095935,0.009552,-0.008538,-2.475,-12.750001,-52.537502
1782298953629,-0.052642,1.115055,9.117754,0.095935,0.009552,-0.008538,-3.9375,-13.462501,-53.606251
1782298953630,-0.052642,1.115055,9.117754,0.046455,-0.011218,-0.014647,-3.9375,-13.462501,-53.606251
1782298953631,-0.143569,1.189233,9.177575,0.046455,-0.011218,-0.014647,-3.9375,-13.462501,-53.606251
1782298953650,-0.232104,1.208375,9.34268,-0.029903,-0.064974,-0.018923,-2.94375,-12.150001,-53.137501
1782298953656,-0.39003,1.191626,9.715959,-0.043342,-0.09063,-0.019534,-2.94375,-12.150001,-53.137501
1782298953658,-0.39003,1.191626,9.715959,-0.043342,-0.09063,-0.019534,-2.25,-13.031251,-54.506252
1782298953665,-0.449851,1.18684,9.847564,-0.032346,-0.10468,-0.018312,-2.25,-13.031251,-54.506252
1782298953670,-0.449851,1.18684,9.847564,-0.032346,-0.10468,-0.018312,-3.73125,-13.593751,-54.825001
1782298953674,-0.457029,1.15334,9.888242,-0.001803,-0.116897,-0.021366,-3.73125,-13.593751,-54.825001
1782298953679,-0.457029,1.15334,9.888242,-0.001803,-0.116897,-0.021366,-3.525,-13.1625,-52.837502
1782298953682,-0.382852,1.091127,9.893029,0.03546,-0.127282,-0.029918,-3.525,-13.1625,-52.837502
1782298953689,-0.382852,1.091127,9.893029,0.03546,-0.127282,-0.029918,-3.39375,-13.031251,-52.237503
1782298953691,-0.275175,1.079163,9.940885,0.067225,-0.141332,-0.041525,-3.39375,-13.031251,-52.237503
1782298953700,-0.181855,1.098306,10.043776,0.087994,-0.14011,-0.053131,-3.975,-12.13125,-53.887501
1782298953709,-0.181855,1.098306,10.043776,0.088605,-0.133391,-0.064738,-3.975,-12.13125,-53.887501
1782298953710,-0.038285,1.112663,10.098811,0.088605,-0.133391,-0.064738,-3.35625,-13.312501,-52.687504
1782298953717,-0.12682,1.033699,10.278273,0.067835,-0.110178,-0.078788,-3.35625,-13.312501,-52.687504
1782298953719,-0.12682,1.033699,10.278273,0.067835,-0.110178,-0.078788,-3.4125,-12.58125,-52.237503
1782298953725,-0.07657,0.947558,10.467306,0.036681,-0.07658,-0.072679,-3.4125,-12.58125,-52.237503
1782298953729,-0.07657,0.947558,10.467306,0.036681,-0.07658,-0.072679,-3.35625,-13.6125,-52.706253
1782298953733,-0.07657,0.947558,10.467306,0.001862,-0.039317,-0.069014,-3.35625,-13.6125,-52.706253
1782298953734,0.014357,0.727418,10.72573,0.001862,-0.039317,-0.069014,-3.35625,-13.6125,-52.706253
1782298953752,-0.009571,0.540778,11.41247,-0.020129,0.00161,-0.057407,-5.025,-12.712501,-53.606251
1782298953760,-0.009571,0.540778,11.41247,0.007971,-0.002055,-0.053742,-5.025,-12.712501,-53.606251
1782298953762,-0.07657,0.557528,11.496219,0.007971,-0.002055,-0.053742,-5.625,-13.593751,-52.706253
1782298953771,-0.07657,0.557528,11.496219,0.056229,-0.016715,-0.047634,-5.625,-13.593751,-52.706253
1782298953772,-0.107677,0.564706,11.434006,0.056229,-0.016715,-0.047634,-5.625,-13.593751,-52.706253
1782298953773,-0.107677,0.564706,11.434006,0.056229,-0.016715,-0.047634,-4.29375,-11.681251,-53.587502
1782298953777,-0.131605,0.634098,11.321543,0.11365,-0.038096,-0.042747,-4.29375,-11.681251,-53.587502
1782298953779,-0.131605,0.634098,11.321543,0.11365,-0.038096,-0.042747,-4.70625,-14.19375,-52.556252
1782298953786,-0.131605,0.634098,11.321543,0.167406,-0.047259,-0.040914,-4.70625,-14.19375,-52.556252
1782298953787,-0.11007,0.655633,11.268901,0.167406,-0.047259,-0.040914,-4.70625,-14.19375,-52.556252
1782298953790,-0.11007,0.655633,11.268901,0.167406,-0.047259,-0.040914,-4.25625,-13.1625,-53.606251
1782298953794,-0.098106,0.713061,11.271294,0.210778,-0.038096,-0.040914,-4.25625,-13.1625,-53.606251
1782298953799,-0.098106,0.713061,11.271294,0.210778,-0.038096,-0.040914,-4.6875,-13.44375,-53.906254
1782298953803,-0.167498,0.837488,11.285651,0.237656,-0.007553,-0.044579,-4.6875,-13.44375,-53.906254
1782298953809,-0.167498,0.837488,11.285651,0.237656,-0.007553,-0.044579,-5.25,-11.53125,-52.218754
1782298953811,-0.241675,1.045663,11.185153,0.249262,0.035208,-0.048855,-5.25,-11.53125,-52.218754
1782298953820,-0.241675,1.045663,11.185153,0.232769,0.07186,-0.05924,-5.25,-11.53125,-52.218754
1782298953821,-0.29671,1.15334,10.917157,0.232769,0.07186,-0.05924,-3.54375,-11.700001,-53.587502
1782298953829,-0.29671,1.15334,10.917157,0.182678,0.104236,-0.068403,-3.54375,-11.700001,-53.587502
1782298953830,-0.363709,1.081556,10.713767,0.182678,0.104236,-0.068403,-4.03125,-14.025001,-54.825001
1782298953836,-0.363709,1.081556,10.713767,0.108763,0.133557,-0.069014,-4.03125,-14.025001,-54.825001
1782298953838,-0.380459,0.803988,10.754445,0.108763,0.133557,-0.069014,-4.03125,-14.025001,-54.825001
1782298953839,-0.380459,0.803988,10.754445,0.108763,0.133557,-0.069014,-2.98125,-14.343751,-54.075001
1782298953859,-0.282353,-0.074178,11.53929,0.03546,0.16349,-0.064738,-4.125,-12.281251,-53.437504
1782298953862,-0.105284,-0.442672,11.917356,-0.064111,0.245346,-0.083064,-4.125,-12.281251,-53.437504
1782298953869,-0.105284,-0.442672,11.917356,-0.064111,0.245346,-0.083064,-3.825,-12.281251,-53.737503
1782298953871,0.043071,-0.789631,12.13271,-0.080605,0.261228,-0.10872,-3.825,-12.281251,-53.737503
1782298953880,0.260818,-0.973879,12.147068,-0.075107,0.247178,-0.131933,-4.5375,-13.293751,-53.756252
1782298953890,0.404387,-1.040878,11.934106,-0.04884,0.2203,-0.155757,-3.99375,-11.38125,-53.887501
1782298953897,0.452243,-0.978664,11.536897,-0.011577,0.190368,-0.178359,-3.99375,-11.38125,-53.887501
1782298953899,0.452243,-0.978664,11.536897,-0.011577,0.190368,-0.178359,-3.3,-14.793751,-53.006252
1782298953906,0.473779,-0.803988,11.063118,0.030573,0.150661,-0.195463,-3.3,-14.793751,-53.006252
1782298953909,0.473779,-0.803988,11.063118,0.030573,0.150661,-0.195463,-3.4875,-13.9125,-52.856251
1782298953914,0.473779,-0.803988,11.063118,0.06417,0.112177,-0.207069,-3.4875,-13.9125,-52.856251
1782298953915,0.507278,-0.55992,10.579769,0.06417,0.112177,-0.207069,-3.4875,-13.9125,-52.856251
1782298953919,0.507278,-0.55992,10.579769,0.06417,0.112177,-0.207069,-2.90625,-13.181251,-52.837502
1782298953923,0.504886,-0.256032,10.156239,0.087383,0.085299,-0.213178,-2.90625,-13.181251,-52.837502
1782298953929,0.504886,-0.256032,10.156239,0.087383,0.085299,-0.213178,-3.075,-13.63125,-52.237503
1782298953932,0.5001,-0.026321,9.780566,0.093492,0.074914,-0.217454,-3.075,-13.63125,-52.237503
1782298953940,0.5001,-0.026321,9.780566,0.081275,0.07186,-0.219287,-3.075,-13.63125,-52.237503
1782298953941,0.433101,0.102891,9.526927,0.081275,0.07186,-0.219287,-4.2375,-14.19375,-53.156254
1782298953953,0.361316,0.165105,9.361822,0.051342,0.081634,-0.215621,-2.26875,-14.3625,-53.006252
1782298953956,0.260818,0.184247,9.316358,0.01469,0.106679,-0.208902,-2.26875,-14.3625,-53.006252
1782298953958,0.260818,0.184247,9.316358,0.01469,0.106679,-0.208902,-3.76875,-13.593751,-54.056252
1782298953965,0.162712,0.222533,9.273287,-0.017075,0.130503,-0.197295,-3.76875,-13.593751,-54.056252
1782298953969,0.162712,0.222533,9.273287,-0.017075,0.130503,-0.197295,-3.525,-13.1625,-52.837502
1782298953974,0.143569,0.22014,9.223038,-0.037233,0.143331,-0.187522,-3.525,-13.1625,-52.837502
1782298953979,0.143569,0.22014,9.223038,-0.037233,0.143331,-0.187522,-4.21875,-11.85,-51.168751
1782298953982,0.143569,0.22014,9.223038,-0.040288,0.139055,-0.17958,-4.21875,-11.85,-51.168751
1782298953983,0.22014,0.212961,9.187146,-0.040288,0.139055,-0.17958,-4.21875,-11.85,-51.168751
1782298953989,0.22014,0.212961,9.187146,-0.040288,0.139055,-0.17958,-3.16875,-14.212501,-53.156254
1782298953991,0.22014,0.212961,9.187146,-0.026849,0.118896,-0.170417,-3.16875,-14.212501,-53.156254
1782298953992,0.232104,0.081356,9.208681,-0.026849,0.118896,-0.170417,-3.16875,-14.212501,-53.156254
1782298953999,0.232104,0.081356,9.208681,-0.026849,0.118896,-0.170417,-3.3375,-14.062501,-53.006252
1782298954000,0.246461,0.095713,9.290037,-0.026849,0.118896,-0.170417,-3.3375,-14.062501,-53.006252
1782298954001,0.246461,0.095713,9.290037,-0.001192,0.105457,-0.160644,-3.3375,-14.062501,-53.006252
1782298954011,0.234497,0.157926,9.206288,0.023853,0.101792,-0.149648,-2.98125,-14.343751,-54.075001
1782298954017,0.212961,0.174676,9.117754,0.036071,0.104847,-0.139263,-2.98125,-14.343751,-54.075001
1782298954019,0.212961,0.174676,9.117754,0.036071,0.104847,-0.139263,-2.98125,-14.343751,-54.075001
1782298954026,0.200997,0.177069,9.034005,0.031184,0.104847,-0.139263,-2.98125,-14.343751,-54.075001
1782298954030,0.200997,0.177069,9.034005,0.031184,0.104847,-0.139263,-2.30625,-13.33125,-53.006252
1782298954034,0.191426,0.229711,8.935899,0.011636,0.103014,-0.148426,-2.30625,-13.33125,-53.006252
1782298954039,0.191426,0.229711,8.935899,0.011636,0.103014,-0.148426,-3.39375,-14.175,-55.425003
1782298954042,0.095713,0.189033,8.952649,-0.020129,0.098127,-0.163087,-3.39375,-14.175,-55.425003
1782298954050,0.095713,0.189033,8.952649,-0.020129,0.098127,-0.163087,-3.45,-14.94375,-53.156254
1782298954051,0.035892,0.131605,8.981363,-0.062279,0.09996,-0.174693,-3.45,-14.94375,-53.156254
1782298954058,0.035892,0.131605,8.981363,-0.062279,0.09996,-0.174693,-3.69375,-14.775001,-55.293751
1782298954059,0.035892,0.131605,8.981363,-0.116646,0.095684,-0.196685,-3.69375,-14.775001,-55.293751
1782298954060,-0.019143,-0.014357,9.134504,-0.116646,0.095684,-0.196685,-3.69375,-14.775001,-55.293751
1782298954070,-0.019143,-0.014357,9.134504,-0.165515,0.070027,-0.226006,-3.69375,-14.775001,-55.293751
1782298954071,-0.074178,-0.179462,9.4025,-0.165515,0.070027,-0.226006,-2.5875,-13.33125,-53.456253
1782298954078,-0.133998,-0.291924,9.754244,-0.194225,0.021158,-0.256549,-2.5875,-13.33125,-53.456253
1782298954079,-0.133998,-0.291924,9.754244,-0.194225,0.021158,-0.256549,-1.8,-12.58125,-55.275002
1782298954086,-0.136391,-0.366102,10.036598,-0.197891,-0.033209,-0.280984,-1.8,-12.58125,-55.275002
1782298954089,-0.136391,-0.366102,10.036598,-0.197891,-0.033209,-0.280984,-2.325,-13.05,-52.237503
1782298954094,-0.066999,-0.430708,10.091632,-0.187506,-0.096739,-0.291369,-2.325,-13.05,-52.237503
1782298954099,-0.066999,-0.430708,10.091632,-0.187506,-0.096739,-0.291369,-3.50625,-13.1625,-53.156254
1782298954102,0.064606,-0.437887,9.983956,-0.163682,-0.149273,-0.290147,-3.50625,-13.1625,-53.156254
1782298954108,0.064606,-0.437887,9.983956,-0.163682,-0.149273,-0.290147,-3.3375,-13.312501,-53.456253
1782298954111,0.205783,-0.284746,9.634603,-0.129474,-0.173708,-0.279762,-3.3375,-13.312501,-53.456253
1782298954118,0.205783,-0.284746,9.634603,-0.129474,-0.173708,-0.279762,-2.1375,-13.181251,-53.606251
1782298954119,0.282353,-0.057428,9.103397,-0.088546,-0.157825,-0.263269,-2.1375,-13.181251,-53.606251
1782298954129,0.342174,0.119641,8.526726,-0.054337,-0.132169,-0.236391,-3.1875,-13.1625,-53.606251
1782298954137,0.37328,0.380459,8.074483,-0.028681,-0.108956,-0.202793,-3.1875,-13.1625,-53.606251
1782298954138,0.37328,0.380459,8.074483,-0.028681,-0.108956,-0.202793,-2.1375,-13.931251,-52.556252
1782298954145,0.397209,0.602991,7.816058,-0.009133,-0.074748,-0.168585,-2.1375,-13.931251,-52.556252
1782298954149,0.397209,0.602991,7.816058,-0.009133,-0.074748,-0.168585,-2.2875,-12.58125,-54.056252
1782298954157,0.411565,0.689133,7.725131,0.001251,-0.024046,-0.140485,-2.2875,-12.58125,-54.056252
1782298954159,0.411565,0.689133,7.725131,0.001251,-0.024046,-0.140485,-2.2875,-13.031251,-53.756252
1782298954162,0.325424,0.684347,7.739488,-0.00669,0.026656,-0.119716,-2.2875,-13.031251,-53.756252
1782298954169,0.325424,0.684347,7.739488,-0.00669,0.026656,-0.119716,-2.26875,-13.33125,-54.056252
1782298954171,0.196211,0.643669,7.854343,-0.032957,0.066362,-0.098335,-2.26875,-13.33125,-54.056252
1782298954178,0.196211,0.643669,7.854343,-0.032957,0.066362,-0.098335,-2.8875,-12.731251,-53.906254
1782298954179,0.107677,0.619741,8.086447,-0.076329,0.093851,-0.078177,-2.8875,-12.731251,-53.906254
1782298954189,0.023928,0.591027,8.297016,-0.123976,0.084077,-0.058629,-3.46875,-12.1125,-55.406254
1782298954198,-0.047856,0.526421,8.553048,-0.164904,0.051091,-0.045801,-4.0125,-11.681251,-53.137501
1782298954205,-0.019143,0.57667,8.713367,-0.179565,0.015049,-0.037249,-4.0125,-11.681251,-53.137501
1782298954208,-0.019143,0.57667,8.713367,-0.179565,0.015049,-0.037249,-2.30625,-12.3,-53.437504
1782298954214,-0.052642,0.600598,8.722938,-0.163682,-0.011218,-0.032973,-2.30625,-12.3,-53.437504
1782298954219,-0.052642,0.600598,8.722938,-0.163682,-0.011218,-0.032973,-3.975,-12.731251,-52.837502
1782298954222,-0.021535,0.643669,8.565012,-0.135582,-0.024046,-0.034195,-3.975,-12.731251,-52.837502
1782298954228,-0.021535,0.643669,8.565012,-0.135582,-0.024046,-0.034195,-4.125,-13.012501,-52.687504
1782298954231,0.007178,0.72024,8.426228,-0.108704,-0.038707,-0.030529,-4.125,-13.012501,-52.687504
1782298954238,0.007178,0.72024,8.426228,-0.108704,-0.038707,-0.030529,-2.94375,-12.150001,-52.837502
1782298954239,-0.002393,0.775275,8.423835,-0.093433,-0.051535,-0.018923,-2.94375,-12.150001,-52.837502
1782298954250,-0.0335,0.756132,8.584155,-0.086102,-0.0552,-0.000597,-1.74375,-12.168751,-52.537502
1782298954257,-0.07657,0.667598,8.892828,-0.090378,-0.042983,0.018951,-1.74375,-12.168751,-52.537502
1782298954258,-0.07657,0.667598,8.892828,-0.090378,-0.042983,0.018951,-2.625,-12.6,-52.687504
1782298954265,-0.07657,0.667598,8.892828,-0.101985,-0.019159,0.041553,-2.625,-12.6,-52.687504
1782298954266,-0.136391,0.629312,9.280466,-0.101985,-0.019159,0.041553,-2.625,-12.6,-52.687504
1782298954268,-0.136391,0.629312,9.280466,-0.101985,-0.019159,0.041553,-3.20625,-12.431251,-53.587502
1782298954274,-0.153141,0.540778,9.567605,-0.120922,0.018715,0.057435,-3.20625,-12.431251,-53.587502
1782298954279,-0.153141,0.540778,9.567605,-0.120922,0.018715,0.057435,-2.60625,-11.55,-54.506252
1782298954282,-0.153141,0.540778,9.567605,-0.139859,0.046204,0.066598,-2.60625,-11.55,-54.506252
1782298954283,-0.143569,0.442672,9.761423,-0.139859,0.046204,0.066598,-2.60625,-11.55,-54.506252
1782298954288,-0.143569,0.442672,9.761423,-0.139859,0.046204,0.066598,-4.89375,-12.562501,-52.987503
1782298954291,-0.122034,0.361316,9.926528,-0.147189,0.052312,0.070874,-4.89375,-12.562501,-52.987503
1782298954298,-0.122034,0.361316,9.926528,-0.147189,0.052312,0.070874,-4.5375,-13.293751,-54.056252
1782298954300,-0.081356,0.385244,10.110775,-0.133139,0.048036,0.068431,-4.5375,-13.293751,-54.056252
1782298954310,-0.052642,0.471386,10.146668,-0.096487,0.044982,0.059879,-2.3625,-12.3,-52.237503
1782298954317,0.009571,0.524028,10.038991,-0.051894,0.043149,0.048883,-2.3625,-12.3,-52.237503
1782298954318,0.009571,0.524028,10.038991,-0.051894,0.043149,0.048883,-2.45625,-12.731251,-53.137501
1782298954326,0.004786,0.634098,9.797315,-0.011577,0.031543,0.034833,-2.45625,-12.731251,-53.137501
1782298954329,0.004786,0.634098,9.797315,-0.011577,0.031543,0.034833,-4.21875,-13.89375,-53.606251
1782298954334,0.004786,0.634098,9.797315,0.017745,0.010773,0.021394,-4.21875,-13.89375,-53.606251
1782298954335,-0.004786,0.758525,9.555641,0.017745,0.010773,0.021394,-4.21875,-13.89375,-53.606251
1782298954340,-0.004786,0.758525,9.555641,0.017745,0.010773,0.021394,-2.1375,-13.181251,-53.156254
1782298954343,-0.004786,0.758525,9.555641,0.034238,-0.012439,0.009177,-2.1375,-13.181251,-53.156254
1782298954344,-0.009571,0.878166,9.4025,0.034238,-0.012439,0.009177,-2.1375,-13.181251,-53.156254
1782298954349,-0.009571,0.878166,9.4025,0.034238,-0.012439,0.009177,-3.39375,-11.85,-52.987503
1782298954352,-0.059821,0.952343,9.481463,0.045844,-0.027711,0.002457,-3.39375,-11.85,-52.987503
1782298954362,-0.081356,1.045663,9.66571,0.059894,-0.04848,0.002457,-2.1375,-12.431251,-54.356251
1782298954369,-0.035892,1.055235,9.837993,0.07822,-0.06253,0.003679,-2.60625,-11.85,-54.506252
1782298954377,0.014357,1.045663,9.960027,0.094103,-0.053367,0.004901,-2.60625,-11.85,-54.506252
1782298954378,0.014357,1.045663,9.960027,0.094103,-0.053367,0.004901,-3.2625,-11.400001,-52.818752
1782298954385,0.014357,1.045663,9.960027,0.102655,-0.028322,0.012842,-3.2625,-11.400001,-52.818752
1782298954386,0.011964,0.981057,10.034205,0.102655,-0.028322,0.012842,-3.2625,-11.400001,-52.818752
1782298954389,0.011964,0.981057,10.034205,0.102655,-0.028322,0.012842,-2.30625,-12.3,-53.737503
1782298954395,0.038285,0.868595,10.161025,0.103266,-0.019159,0.029335,-2.30625,-12.3,-53.737503
1782298954400,0.038285,0.868595,10.161025,0.103266,-0.019159,0.029335,-3.80625,-13.6125,-53.006252
1782298954403,0.038285,0.868595,10.161025,0.11365,-0.028322,0.052548,-3.80625,-13.6125,-53.006252
1782298954404,0.050249,0.72024,10.457735,0.11365,-0.028322,0.052548,-3.80625,-13.6125,-53.006252
1782298954409,0.050249,0.72024,10.457735,0.11365,-0.028322,0.052548,-2.1375,-13.481251,-53.156254
1782298954412,0.055035,0.629312,10.862121,0.140528,-0.030155,0.081259,-2.1375,-13.481251,-53.156254
1782298954419,0.055035,0.629312,10.862121,0.140528,-0.030155,0.081259,-3.20625,-13.181251,-53.156254
1782298954421,0.052642,0.543171,11.070297,0.183289,-0.020381,0.113635,-3.20625,-13.181251,-53.156254
1782298954430,0.052642,0.543171,11.070297,0.183289,-0.020381,0.113635,-3.1875,-13.462501,-53.156254
1782298954431,0.002393,0.497707,11.075082,0.216886,-0.016715,0.141124,-3.1875,-13.462501,-53.156254
1782298954438,-0.066999,0.547956,10.981762,0.225439,-0.0271,0.162504,-2.85,-13.9125,-53.906254
1782298954446,-0.122034,0.68674,10.898014,0.207724,-0.056422,0.175943,-2.85,-13.9125,-53.906254
1782298954448,-0.122034,0.68674,10.898014,0.207724,-0.056422,0.175943,-3.975,-12.712501,-53.137501
1782298954455,-0.133998,0.803988,10.926728,0.171682,-0.086965,0.178997,-3.975,-12.712501,-53.137501
1782298954460,-0.133998,0.803988,10.926728,0.171682,-0.086965,0.178997,-5.025,-13.89375,-52.087502
1782298954477,-0.098106,0.861416,11.244973,0.098379,-0.115065,0.173499,-3.91875,-14.19375,-53.156254
1782298954479,-0.098106,0.861416,11.244973,0.098379,-0.115065,0.173499,-2.45625,-13.481251,-52.856251
1782298954481,-0.090927,0.81356,11.44597,0.082496,-0.1114,0.174721,-2.45625,-13.481251,-52.856251
1782298954490,-0.119641,0.770489,11.635004,0.083107,-0.09796,0.182662,-2.45625,-13.481251,-52.856251
1782298954497,-0.119641,0.770489,11.635004,0.106931,-0.06925,0.191215,-2.45625,-13.481251,-52.856251
1782298954498,-0.198604,0.825524,11.687645,0.106931,-0.06925,0.191215,-4.63125,-14.925,-53.925003
1782298954509,-0.275175,0.887737,11.510577,0.138696,-0.037485,0.200988,-3.20625,-14.512501,-52.106251
1782298954514,-0.315853,0.79681,11.249759,0.153967,-0.027711,0.217482,-3.20625,-14.512501,-52.106251
1782298954519,-0.315853,0.79681,11.249759,0.153967,-0.027711,0.217482,-5.775,-13.14375,-52.837502
1782298954524,-0.382852,0.59342,11.14926,0.129533,-0.045426,0.241305,-5.775,-13.14375,-52.837502
1782298954528,-0.382852,0.59342,11.14926,0.129533,-0.045426,0.241305,-4.95,-13.875001,-54.375004
1782298954532,-0.392423,0.232104,11.333507,0.073333,-0.047259,0.275514,-4.95,-13.875001,-54.375004
1782298954539,-0.392423,0.232104,11.333507,0.073333,-0.047259,0.275514,-4.70625,-12.4125,-54.356251
1782298954541,-0.411565,-0.253639,11.668502,0.001862,-0.029544,0.303003,-4.70625,-12.4125,-54.356251
1782298954550,-0.411565,-0.253639,11.668502,-0.082437,-0.024657,0.314609,-4.70625,-12.4125,-54.356251
1782298954551,-0.464208,-0.636491,11.94607,-0.082437,-0.024657,0.314609,-3.43125,-13.14375,-55.725002
1782298954558,-0.490529,-0.842274,12.087246,-0.172845,-0.037485,0.311555,-3.43125,-13.14375,-55.725002
1782298954559,-0.490529,-0.842274,12.087246,-0.172845,-0.037485,0.311555,-3.225,-13.481251,-52.087502
1782298954573,-0.485743,-0.973879,11.953249,-0.248592,-0.063752,0.296894,-4.5,-14.025001,-54.075001
1782298954575,-0.468993,-1.048056,11.563219,-0.29624,-0.09796,0.276736,-4.5,-14.025001,-54.075001
1782298954579,-0.468993,-1.048056,11.563219,-0.29624,-0.09796,0.276736,-3.95625,-13.462501,-53.156254
1782298954583,-0.468993,-1.048056,11.563219,-0.304181,-0.121784,0.252301,-3.95625,-13.462501,-53.156254
1782298954584,-0.42353,-1.009771,11.046369,-0.304181,-0.121784,0.252301,-3.95625,-13.462501,-53.156254
1782298954588,-0.42353,-1.009771,11.046369,-0.304181,-0.121784,0.252301,-4.25625,-13.462501,-53.156254
1782298954591,-0.42353,-1.009771,11.046369,-0.271805,-0.119952,0.22298,-4.25625,-13.462501,-53.156254
1782298954592,-0.507278,-0.880559,10.548662,-0.271805,-0.119952,0.22298,-4.25625,-13.462501,-53.156254
1782298954599,-0.507278,-0.880559,10.548662,-0.271805,-0.119952,0.22298,-4.5,-15.075001,-53.475002
1782298954600,-0.507278,-0.880559,10.548662,-0.203999,-0.107734,0.198545,-4.5,-15.075001,-53.475002
1782298954601,-0.538385,-0.674776,9.924135,-0.203999,-0.107734,0.198545,-4.5,-15.075001,-53.475002
1782298954610,-0.538385,-0.674776,9.924135,-0.123976,-0.117508,0.177776,-3.525,-13.181251,-52.537502
1782298954611,-0.334995,-0.282353,9.421642,-0.123976,-0.117508,0.177776,-3.525,-13.181251,-52.537502
1782298954618,-0.461815,-0.160319,9.256538,-0.043342,-0.133391,0.157006,-3.525,-13.181251,-52.537502
1782298954619,-0.461815,-0.160319,9.256538,-0.043342,-0.133391,0.157006,-5.625,-12.993751,-53.456253
1782298954626,-0.442672,-0.052642,8.876079,0.02141,-0.108345,0.149065,-5.625,-12.993751,-53.456253
1782298954629,-0.442672,-0.052642,8.876079,0.02141,-0.108345,0.149065,-6.35625,-14.025001,-53.006252
1782298954634,-0.442672,-0.052642,8.876079,0.060505,-0.086965,0.147232,-6.35625,-14.025001,-53.006252
1782298954636,-0.543171,-0.040678,8.842579,0.060505,-0.086965,0.147232,-6.35625,-14.025001,-53.006252
1782298954639,-0.543171,-0.040678,8.842579,0.060505,-0.086965,0.147232,-3.825,-12.281251,-53.737503
1782298954644,-0.430708,0.071785,8.840187,0.078831,-0.053978,0.156395,-3.825,-12.281251,-53.737503
1782298954649,-0.430708,0.071785,8.840187,0.078831,-0.053978,0.156395,-6.525,-12.675,-53.906254
1782298954652,-0.430708,0.071785,8.840187,0.06417,-0.012439,0.147843,-6.525,-12.675,-53.906254
1782298954653,-0.20339,0.066999,8.8689,0.06417,-0.012439,0.147843,-6.525,-12.675,-53.906254
1782298954659,-0.20339,0.066999,8.8689,0.06417,-0.012439,0.147843,-4.55625,-12.262501,-54.506252
1782298954660,-0.20339,0.066999,8.8689,0.036681,0.002221,0.13868,-4.55625,-12.262501,-54.506252
1782298954671,0.01675,0.074178,9.404892,0.009803,0.027267,0.139902,-4.9125,-11.53125,-53.437504
1782298954678,0.01675,-0.002393,9.546069,-0.015853,0.051701,0.152119,-4.9125,-11.53125,-53.437504
1782298954679,0.01675,-0.002393,9.546069,-0.015853,0.051701,0.152119,-5.00625,-13.89375,-52.556252
1782298954686,-0.055035,-0.148355,9.488641,-0.046396,0.057199,0.169834,-5.00625,-13.89375,-52.556252
1782298954688,-0.055035,-0.148355,9.488641,-0.046396,0.057199,0.169834,-4.6875,-13.14375,-53.906254
1782298954695,-0.150748,-0.224925,9.373786,-0.087935,0.055977,0.188771,-4.6875,-13.14375,-53.906254
1782298954700,-0.150748,-0.224925,9.373786,-0.087935,0.055977,0.188771,-5.64375,-11.8125,-54.037502
1782298954703,-0.205783,-0.200997,9.249359,-0.128863,0.059032,0.200378,-5.64375,-11.8125,-54.037502
1782298954709,-0.205783,-0.200997,9.249359,-0.128863,0.059032,0.200378,-3.975,-12.13125,-53.887501
1782298954712,-0.308674,-0.129212,9.110575,-0.155741,0.068806,0.204043,-3.975,-12.13125,-53.887501
1782298954718,-0.308674,-0.129212,9.110575,-0.155741,0.068806,0.204043,-4.03125,-11.700001,-52.518753
1782298954720,-0.308674,-0.119641,8.983756,-0.163071,0.073082,0.204043,-4.03125,-11.700001,-52.518753
1782298954729,-0.363709,-0.141177,9.055541,-0.160017,0.051701,0.201599,-3.4875,-13.1625,-53.906254
1782298954740,-0.354138,-0.217747,9.235002,-0.152687,0.021769,0.197323,-3.45,-12.712501,-55.125004
1782298954746,-0.342174,-0.320638,9.53889,-0.147189,-0.01305,0.193047,-3.45,-12.712501,-55.125004
1782298954748,-0.342174,-0.320638,9.53889,-0.147189,-0.01305,0.193047,-5.04375,-12.712501,-52.837502
1782298954755,-0.332602,-0.397209,9.804493,-0.146578,-0.04115,0.187549,-5.04375,-12.712501,-52.837502
1782298954759,-0.332602,-0.397209,9.804493,-0.146578,-0.04115,0.187549,-4.74375,-12.712501,-52.837502
1782298954763,-0.375673,-0.416351,9.904993,-0.149021,-0.051535,0.177165,-4.74375,-12.712501,-52.837502
1782298954778,-0.435494,-0.361316,9.744673,-0.160628,-0.054589,0.165558,-2.90625,-13.181251,-52.837502
1782298954779,-0.435494,-0.361316,9.744673,-0.160628,-0.054589,0.165558,-6.39375,-12.993751,-52.687504
1782298954780,-0.435494,-0.361316,9.744673,-0.179565,-0.066196,0.152119,-6.39375,-12.993751,-52.687504
1782298954781,-0.437887,-0.251246,9.397714,-0.179565,-0.066196,0.152119,-6.39375,-12.993751,-52.687504
1782298954790,-0.37328,-0.107677,9.024434,-0.188728,-0.088798,0.133793,-4.89375,-12.262501,-53.437504
1782298954799,-0.253639,0.069392,8.703796,-0.174678,-0.108956,0.111191,-4.70625,-13.14375,-53.606251
1782298954806,-0.138784,0.236889,8.414264,-0.133139,-0.120562,0.0892,-4.70625,-13.14375,-53.606251
1782298954808,-0.138784,0.236889,8.414264,-0.133139,-0.120562,0.0892,-4.575,-12.562501,-53.437504
1782298954815,-0.052642,0.392423,8.098412,-0.079383,-0.127893,0.070263,-4.575,-12.562501,-53.437504
1782298954820,-0.052642,0.392423,8.098412,-0.079383,-0.127893,0.070263,-4.575,-13.012501,-52.687504
1782298954824,0.040678,0.490529,7.9022,-0.033568,-0.137056,0.051327,-4.575,-13.012501,-52.687504
1782298954829,0.040678,0.490529,7.9022,-0.033568,-0.137056,0.051327,-4.03125,-10.650001,-53.118752
1782298954832,0.119641,0.507278,7.842379,-0.010966,-0.16088,0.034222,-4.03125,-10.650001,-53.118752
1782298954838,0.119641,0.507278,7.842379,-0.010966,-0.16088,0.034222,-5.79375,-12.1125,-53.587502
1782298954840,0.119641,0.507278,7.842379,-0.017686,-0.176151,0.016507,-5.79375,-12.1125,-53.587502
1782298954841,0.224925,0.512064,7.993127,-0.017686,-0.176151,0.016507,-5.79375,-12.1125,-53.587502
1782298954850,0.260818,0.564706,8.268302,-0.04212,-0.162712,0.003679,-5.79375,-12.1125,-53.587502
1782298954851,0.260818,0.564706,8.268302,-0.04212,-0.162712,0.003679,-5.1,-13.575001,-54.825001
1782298954859,0.260818,0.564706,8.268302,-0.074496,-0.129115,-0.007316,-5.1,-13.575001,-54.825001
1782298954861,0.320638,0.545564,8.519548,-0.074496,-0.129115,-0.007316,-4.55625,-12.562501,-54.056252
1782298954866,0.320638,0.545564,8.519548,-0.108704,-0.099793,-0.022588,-4.55625,-12.562501,-54.056252
1782298954867,0.29671,0.492921,8.718153,-0.108704,-0.099793,-0.022588,-4.55625,-12.562501,-54.056252
1782298954883,0.133998,0.514457,8.928721,-0.145356,-0.11873,-0.050688,-3.975,-12.712501,-53.137501
1782298954889,0.133998,0.514457,8.928721,-0.145356,-0.11873,-0.050688,-4.125,-11.83125,-53.737503
1782298954892,0.143569,0.416351,8.990934,-0.142302,-0.13278,-0.062905,-4.125,-11.83125,-53.737503
1782298954899,0.143569,0.416351,8.990934,-0.142302,-0.13278,-0.062905,-4.8375,-12.262501,-54.806252
1782298954901,0.160319,0.282353,9.002899,-0.123976,-0.121784,-0.072068,-4.8375,-12.262501,-54.806252
1782298954910,0.172283,0.229711,9.034005,-0.089157,-0.099793,-0.074512,-5.775,-11.6625,-54.656254
1782298954919,0.172283,0.229711,9.034005,-0.043342,-0.071082,-0.073901,-5.775,-11.6625,-54.656254
1782298954920,0.212961,0.174676,9.055541,-0.043342,-0.071082,-0.073901,-6.3,-11.6625,-52.518753
1782298954927,0.179462,0.18664,9.10579,0.002473,-0.042372,-0.070236,-6.3,-11.6625,-52.518753
1782298954928,0.179462,0.18664,9.10579,0.002473,-0.042372,-0.070236,-4.9875,-11.1,-51.450001
1782298954935,0.112463,0.315853,9.235002,0.044623,-0.014883,-0.06657,-4.9875,-11.1,-51.450001
1782298954939,0.112463,0.315853,9.235002,0.044623,-0.014883,-0.06657,-4.70625,-12.4125,-54.356251
1782298954944,0.069392,0.4666,9.282858,0.082496,0.002832,-0.063516,-4.70625,-12.4125,-54.356251
1782298954949,0.069392,0.4666,9.282858,0.082496,0.002832,-0.063516,-4.85625,-11.8125,-54.806252
1782298954953,0.035892,0.571885,9.316358,0.111818,0.015049,-0.06596,-4.85625,-11.8125,-54.806252
1782298954959,0.035892,0.571885,9.316358,0.111818,0.015049,-0.06596,-4.85625,-11.8125,-54.806252
1782298954961,-0.011964,0.672383,9.316358,0.1277,0.02238,-0.07329,-4.85625,-11.8125,-54.806252
1782298954970,-0.011964,0.672383,9.316358,0.133198,0.017493,-0.084285,-4.85625,-11.8125,-54.806252
1782298954971,-0.057428,0.741775,9.311573,0.133198,0.017493,-0.084285,-5.04375,-11.6625,-53.887501
1782298954992,-0.090927,0.725025,9.629818,0.132587,-0.014272,-0.105666,-5.90625,-13.275001,-53.756252
1782298954995,-0.083749,0.665205,9.914564,0.135031,-0.031987,-0.114218,-5.90625,-13.275001,-53.756252
1782298954999,-0.083749,0.665205,9.914564,0.135031,-0.031987,-0.114218,-5.71875,-13.125001,-54.675003
1782298955004,-0.071785,0.602991,10.127525,0.139918,-0.03382,-0.116661,-5.71875,-13.125001,-54.675003
1782298955009,-0.071785,0.602991,10.127525,0.139918,-0.03382,-0.116661,-5.475,-12.4125,-53.587502
1782298955013,-0.040678,0.535992,10.29263,0.141139,-0.022824,-0.113607,-5.475,-12.4125,-53.587502
1782298955019,-0.040678,0.535992,10.29263,0.141139,-0.022824,-0.113607,-3.975,-12.712501,-53.137501
1782298955022,-0.045464,0.507278,10.395521,0.138085,-0.014272,-0.113607,-3.975,-12.712501,-53.137501
1782298955030,-0.083749,0.492921,10.457735,0.130144,-0.008774,-0.110553,-4.8,-11.38125,-52.518753
1782298955039,-0.083749,0.492921,10.457735,0.122202,-0.008163,-0.108109,-4.8,-11.38125,-52.518753
1782298955040,-0.119641,0.476172,10.543876,0.122202,-0.008163,-0.108109,-6.54375,-12.69375,-52.837502
1782298955047,-0.124427,0.447458,10.677874,0.125257,-0.000222,-0.108109,-6.54375,-12.69375,-52.837502
1782298955049,-0.124427,0.447458,10.677874,0.125257,-0.000222,-0.108109,-4.81875,-13.293751,-54.506252
1782298955055,-0.124427,0.447458,10.677874,0.142972,0.007108,-0.10872,-4.81875,-13.293751,-54.506252
1782298955056,-0.098106,0.378066,10.79273,0.142972,0.007108,-0.10872,-4.81875,-13.293751,-54.506252
1782298955060,-0.098106,0.378066,10.79273,0.142972,0.007108,-0.10872,-5.19375,-12.262501,-53.437504
1782298955064,-0.098106,0.378066,10.79273,0.169239,0.013217,-0.113607,-5.19375,-12.262501,-53.437504
1782298955065,-0.057428,0.306281,10.948263,0.169239,0.013217,-0.113607,-5.19375,-12.262501,-53.437504
1782298955069,-0.057428,0.306281,10.948263,0.169239,0.013217,-0.113607,-4.2375,-14.19375,-53.156254
1782298955073,-0.019143,0.205783,11.077475,0.196728,0.016271,-0.119105,-4.2375,-14.19375,-53.156254
1782298955090,0.0335,0.133998,11.376579,0.230936,0.017493,-0.130711,-6.6375,-14.00625,-53.456253
1782298955099,0.028714,0.272782,11.400507,0.251095,0.019326,-0.140485,-6.6375,-14.00625,-53.456253
1782298955100,0.028714,0.272782,11.400507,0.251095,0.019326,-0.140485,-5.625,-12.543751,-53.756252
1782298955107,0.055035,0.471386,11.273687,0.272475,0.018715,-0.157589,-5.625,-12.543751,-53.756252
1782298955109,0.055035,0.471386,11.273687,0.272475,0.018715,-0.157589,-6.84375,-13.125001,-52.537502
1782298955115,0.055035,0.471386,11.273687,0.281027,0.010773,-0.180191,-6.84375,-13.125001,-52.537502
1782298955116,0.083749,0.643669,11.091833,0.281027,0.010773,-0.180191,-6.84375,-13.125001,-52.537502
1782298955120,0.083749,0.643669,11.091833,0.281027,0.010773,-0.180191,-4.96875,-13.875001,-53.906254
1782298955124,0.059821,0.614955,11.048762,0.265756,-0.007553,-0.20035,-4.96875,-13.875001,-53.906254
1782298955130,0.059821,0.614955,11.048762,0.265756,-0.007553,-0.20035,-5.1375,-14.325001,-53.006252
1782298955133,0.172283,0.722632,11.221045,0.227882,-0.023435,-0.227839,-5.1375,-14.325001,-53.006252
1782298955139,0.172283,0.722632,11.221045,0.227882,-0.023435,-0.227839,-3.50625,-14.493751,-52.106251
1782298955142,0.129212,0.729811,11.443577,0.1839,-0.020992,-0.257771,-3.50625,-14.493751,-52.106251
1782298955150,0.122034,0.820738,11.548862,0.144804,0.011384,-0.274264,-4.03125,-14.025001,-54.825001
1782298955160,0.122034,0.820738,11.548862,0.113039,0.055977,-0.280373,-5.625,-14.043751,-51.937504
1782298955161,0.088534,0.863809,11.484255,0.113039,0.055977,-0.280373,-5.625,-14.043751,-51.937504
1782298955167,0.088534,0.863809,11.484255,0.076998,0.087742,-0.279151,-5.625,-14.043751,-51.937504
1782298955168,0.117248,0.722632,11.297616,0.076998,0.087742,-0.279151,-5.625,-14.043751,-51.937504
1782298955169,0.117248,0.722632,11.297616,0.076998,0.087742,-0.279151,-4.875,-13.293751,-53.006252
1782298955175,0.145962,0.433101,11.173189,0.023853,0.101792,-0.27854,-4.875,-13.293751,-53.006252
1782298955183,0.145962,0.433101,11.173189,0.023853,0.101792,-0.27854,-5.11875,-14.025001,-53.756252
1782298955184,0.200997,0.098106,11.271294,-0.036622,0.111566,-0.277319,-5.11875,-14.025001,-53.756252
1782298955189,0.200997,0.098106,11.271294,-0.036622,0.111566,-0.277319,-6.15,-14.906251,-53.625004
1782298955192,0.320638,-0.246461,11.517755,-0.089157,0.136612,-0.277319,-6.15,-14.906251,-53.625004
1782298955198,0.320638,-0.246461,11.517755,-0.089157,0.136612,-0.277319,-4.85625,-12.562501,-54.056252
1782298955201,0.409173,-0.528814,11.68286,-0.123365,0.172042,-0.282206,-4.85625,-12.562501,-54.056252
1782298955209,0.409173,-0.528814,11.68286,-0.123365,0.172042,-0.282206,-5.79375,-15.7875,-54.543751
1782298955210,0.409173,-0.528814,11.68286,-0.129474,0.194644,-0.29259,-5.79375,-15.7875,-54.543751
1782298955211,0.452243,-0.734597,11.630217,-0.129474,0.194644,-0.29259,-5.79375,-15.7875,-54.543751
1782298955220,0.471386,-0.823131,11.390935,-0.117257,0.200142,-0.304808,-5.79375,-15.7875,-54.543751
1782298955221,0.471386,-0.823131,11.390935,-0.117257,0.200142,-0.304808,-4.8375,-14.775001,-52.256252
1782298955228,0.440279,-0.847059,10.969799,-0.094655,0.196476,-0.314581,-4.8375,-14.775001,-52.256252
1782298955229,0.440279,-0.847059,10.969799,-0.094655,0.196476,-0.314581,-4.8,-13.293751,-54.825001
1782298955237,0.42353,-0.722632,10.493627,-0.0635,0.19892,-0.321912,-4.8,-13.293751,-54.825001
1782298955239,0.42353,-0.722632,10.493627,-0.0635,0.19892,-0.321912,-5.56875,-14.325001,-53.456253
1782298955244,0.42353,-0.722632,10.493627,-0.03479,0.210526,-0.326188,-5.56875,-14.325001,-53.456253
1782298955245,0.339781,-0.629312,10.019848,-0.03479,0.210526,-0.326188,-5.56875,-14.325001,-53.456253
1782298955250,0.339781,-0.629312,10.019848,-0.03479,0.210526,-0.326188,-3.8625,-14.925,-54.375004
1782298955253,0.339781,-0.629312,10.019848,-0.010966,0.217246,-0.321912,-3.8625,-14.925,-54.375004
1782298955254,0.234497,-0.535992,9.723138,-0.010966,0.217246,-0.321912,-3.8625,-14.925,-54.375004
1782298955259,0.234497,-0.535992,9.723138,-0.010966,0.217246,-0.321912,-3.73125,-14.775001,-53.775002
1782298955261,0.064606,-0.430708,9.601104,0.005527,0.211748,-0.312138,-3.73125,-14.775001,-53.775002
1782298955269,0.064606,-0.430708,9.601104,0.005527,0.211748,-0.312138,-4.05,-14.775001,-53.475002
1782298955270,-0.066999,-0.318245,9.562819,0.023242,0.208083,-0.298088,-4.05,-14.775001,-53.475002
1782298955280,-0.145962,-0.256032,9.550854,0.037292,0.210526,-0.280984,-3.375,-15.656251,-54.693752
1782298955291,-0.145962,-0.256032,9.550854,0.045233,0.211137,-0.264491,-3.375,-15.656251,-54.693752
1782298955292,-0.184247,-0.172283,9.510177,0.045233,0.211137,-0.264491,-4.2,-14.925,-53.156254
1782298955296,-0.258425,-0.198604,9.455142,0.039125,0.195865,-0.244332,-4.2,-14.925,-53.156254
1782298955298,-0.258425,-0.198604,9.455142,0.039125,0.195865,-0.244332,-4.0875,-14.043751,-53.006252
1782298955304,-0.184247,-0.227318,9.428821,0.029351,0.154327,-0.219287,-4.0875,-14.043751,-53.006252
1782298955309,-0.184247,-0.227318,9.428821,0.029351,0.154327,-0.219287,-1.59375,-15.243751,-54.375004
1782298955312,-0.184247,-0.227318,9.428821,0.018966,0.110955,-0.199739,-1.59375,-15.243751,-54.375004
1782298955313,-0.107677,-0.224925,9.364214,0.018966,0.110955,-0.199739,-1.59375,-15.243751,-54.375004
1782298955319,-0.107677,-0.224925,9.364214,0.018966,0.110955,-0.199739,-4.81875,-13.593751,-54.056252
1782298955321,-0.107677,-0.224925,9.364214,0.006749,0.074914,-0.182635,-4.81875,-13.593751,-54.056252
1782298955322,-0.004786,-0.265603,9.237395,0.006749,0.074914,-0.182635,-4.81875,-13.593751,-54.056252
1782298955329,-0.004786,-0.265603,9.237395,0.006749,0.074914,-0.182635,-3.7875,-12.262501,-54.806252
1782298955330,0.100499,-0.270389,9.136897,-0.009744,0.048036,-0.17225,-3.7875,-12.262501,-54.806252
1782298955340,0.100499,-0.270389,9.136897,-0.02074,0.02971,-0.169196,-3.7875,-12.262501,-54.806252
1782298955341,0.155533,-0.184247,9.069897,-0.02074,0.02971,-0.169196,-3.3375,-13.312501,-53.456253
1782298955347,0.155533,-0.184247,9.069897,-0.034179,0.026045,-0.169196,-3.3375,-13.312501,-53.456253
1782298955348,0.138784,-0.081356,8.928721,-0.034179,0.026045,-0.169196,-2.85,-14.19375,-53.925003
1782298955356,0.143569,-0.0335,8.763616,-0.059835,0.035819,-0.171639,-2.85,-14.19375,-53.925003
1782298955359,0.143569,-0.0335,8.763616,-0.059835,0.035819,-0.171639,-2.86875,-14.493751,-53.156254
1782298955364,0.143569,-0.0335,8.763616,-0.096487,0.035208,-0.172861,-2.86875,-14.493751,-53.156254
1782298955365,0.16989,-0.009571,8.641582,-0.096487,0.035208,-0.172861,-2.86875,-14.493751,-53.156254
1782298955370,0.16989,-0.009571,8.641582,-0.096487,0.035208,-0.172861,-2.41875,-13.9125,-53.156254
1782298955373,0.114855,0.035892,8.632011,-0.142913,0.037041,-0.175915,-2.41875,-13.9125,-53.156254
1782298955379,0.114855,0.035892,8.632011,-0.142913,0.037041,-0.175915,-3.65625,-16.5375,-54.843754
1782298955381,0.057428,0.045464,8.679867,-0.188728,0.04376,-0.176526,-3.65625,-16.5375,-54.843754
1782298955392,0.009571,0.014357,8.79233,-0.219882,0.040706,-0.175304,-3.31875,-13.6125,-54.056252
1782298955400,-0.052642,-0.01675,8.895221,-0.229656,0.026045,-0.177137,-1.7625,-14.062501,-54.525002
1782298955407,-0.09332,-0.064606,8.988541,-0.224158,-0.009385,-0.184467,-1.7625,-14.062501,-54.525002
1782298955408,-0.09332,-0.064606,8.988541,-0.224158,-0.009385,-0.184467,-2.4,-13.462501,-54.356251
1782298955415,-0.095713,-0.112463,9.055541,-0.210108,-0.060698,-0.194241,-2.4,-13.462501,-54.356251
1782298955418,-0.095713,-0.112463,9.055541,-0.210108,-0.060698,-0.194241,-3.1125,-14.493751,-54.675003
1782298955424,-0.117248,-0.112463,9.034005,-0.196669,-0.105902,-0.199128,-3.1125,-14.493751,-54.675003
1782298955429,-0.117248,-0.112463,9.034005,-0.196669,-0.105902,-0.199128,-3.15,-13.9125,-53.906254
1782298955432,-0.143569,-0.038285,8.969399,-0.183841,-0.12606,-0.197295,-3.15,-13.9125,-53.906254
1782298955438,-0.143569,-0.038285,8.969399,-0.183841,-0.12606,-0.197295,-3.15,-13.9125,-53.906254
1782298955441,-0.174676,0.069392,8.816258,-0.175289,-0.128504,-0.189965,-3.15,-13.9125,-53.906254
1782298955448,-0.174676,0.069392,8.816258,-0.175289,-0.128504,-0.189965,-4.5375,-13.593751,-53.756252
1782298955449,-0.165105,0.177069,8.574583,-0.17651,-0.139499,-0.176526,-4.5375,-13.593751,-53.756252
1782298955459,-0.172283,0.287139,8.368801,-0.182008,-0.144386,-0.160033,-3.1875,-12.731251,-53.906254
1782298955467,-0.148355,0.397209,8.225231,-0.182008,-0.139499,-0.138652,-3.1875,-12.731251,-53.906254
1782298955468,-0.148355,0.397209,8.225231,-0.182008,-0.139499,-0.138652,-3.28125,-14.343751,-54.525002
1782298955475,-0.136391,0.476172,8.143875,-0.182008,-0.139499,-0.138652,-3.28125,-14.343751,-54.525002
1782298955476,-0.136391,0.476172,8.143875,-0.172234,-0.123617,-0.116661,-3.28125,-14.343751,-54.525002
1782298955478,-0.136391,0.476172,8.143875,-0.172234,-0.123617,-0.116661,-2.8875,-12.731251,-53.906254
1782298955484,-0.052642,0.430708,8.062519,-0.156963,-0.103458,-0.093448,-2.8875,-12.731251,-53.906254
1782298955489,-0.052642,0.430708,8.062519,-0.156963,-0.103458,-0.093448,-4.10625,-13.012501,-53.456253
1782298955492,-0.052642,0.430708,8.062519,-0.142913,-0.071082,-0.069014,-4.10625,-13.012501,-53.456253
1782298955493,-0.028714,0.320638,8.174982,-0.142913,-0.071082,-0.069014,-4.10625,-13.012501,-53.456253
1782298955498,-0.028714,0.320638,8.174982,-0.142913,-0.071082,-0.069014,-2.5875,-13.031251,-53.456253
1782298955501,-0.028714,0.320638,8.174982,-0.128252,-0.0271,-0.043358,-2.5875,-13.031251,-53.456253
1782298955506,-0.071785,0.253639,8.442977,-0.128252,-0.0271,-0.043358,-2.5875,-13.031251,-53.456253
1782298955508,-0.071785,0.253639,8.442977,-0.128252,-0.0271,-0.043358,-4.59375,-11.83125,-53.437504
1782298955510,-0.124427,0.277567,8.696617,-0.114202,0.013828,-0.015869,-4.59375,-11.83125,-53.437504
1782298955519,-0.198604,0.311067,8.88565,-0.101374,0.038873,0.012231,-2.60625,-12.281251,-54.056252
1782298955527,-0.275175,0.337388,9.034005,-0.0916,0.042538,0.03972,-2.60625,-12.281251,-54.056252
1782298955529,-0.275175,0.337388,9.034005,-0.0916,0.042538,0.03972,-3.7875,-13.012501,-54.056252
1782298955536,-0.275175,0.337388,9.034005,-0.081216,0.021158,0.063544,-3.7875,-13.012501,-54.056252
1782298955537,-0.318245,0.339781,9.136897,-0.081216,0.021158,0.063544,-3.7875,-13.012501,-54.056252
1782298955538,-0.318245,0.339781,9.136897,-0.081216,0.021158,0.063544,-1.66875,-13.931251,-53.156254
1782298955544,-0.318245,0.339781,9.136897,-0.066555,-0.0271,0.075761,-1.66875,-13.931251,-53.156254
1782298955546,-0.260818,0.303888,9.196717,-0.066555,-0.0271,0.075761,-1.66875,-13.931251,-53.156254
1782298955549,-0.260818,0.303888,9.196717,-0.066555,-0.0271,0.075761,-3.91875,-13.89375,-53.606251
1782298955553,-0.260818,0.303888,9.196717,-0.053116,-0.068639,0.076983,-3.91875,-13.89375,-53.606251
1782298955556,-0.191426,0.289532,9.232609,-0.053116,-0.068639,0.076983,-3.91875,-13.89375,-53.606251
1782298955559,-0.191426,0.289532,9.232609,-0.053116,-0.068639,0.076983,-3.0,-13.6125,-54.525002
1782298955562,-0.117248,0.31346,9.273287,-0.040898,-0.091852,0.071485,-3.0,-13.6125,-54.525002
1782298955569,-0.117248,0.31346,9.273287,-0.040898,-0.091852,0.071485,-3.0,-14.043751,-54.075001
1782298955570,-0.021535,0.334995,9.254144,-0.033568,-0.103458,0.065376,-3.0,-14.043751,-54.075001
1782298955580,0.045464,0.387637,9.232609,-0.032346,-0.1114,0.058657,-1.65,-13.181251,-54.356251
1782298955587,0.095713,0.476172,9.232609,-0.031735,-0.109567,0.051327,-1.65,-13.181251,-54.356251
1782298955588,0.095713,0.476172,9.232609,-0.031735,-0.109567,0.051327,-3.0375,-13.312501,-53.756252
1782298955604,0.143569,0.543171,9.27568,-0.02807,-0.0833,0.048883,-4.06875,-13.593751,-53.756252
1782298955605,0.181855,0.574277,9.34268,-0.020129,-0.052146,0.051937,-4.06875,-13.593751,-53.756252
1782298955610,0.181855,0.574277,9.34268,-0.020129,-0.052146,0.051937,-3.525,-13.1625,-52.837502
1782298955613,0.181855,0.574277,9.34268,-0.007301,-0.034431,0.056824,-3.525,-13.1625,-52.837502
1782298955614,0.18664,0.646062,9.438392,-0.007301,-0.034431,0.056824,-3.525,-13.1625,-52.837502
1782298955619,0.18664,0.646062,9.438392,-0.007301,-0.034431,0.056824,-5.56875,-14.025001,-54.075001
1782298955621,0.18664,0.646062,9.438392,0.00736,-0.030765,0.058046,-5.56875,-14.025001,-54.075001
1782298955622,0.251246,0.722632,9.51257,0.00736,-0.030765,0.058046,-5.56875,-14.025001,-54.075001
1782298955629,0.251246,0.722632,9.51257,0.00736,-0.030765,0.058046,-3.50625,-12.731251,-53.606251
1782298955631,0.301496,0.710668,9.641782,0.015301,-0.044815,0.048883,-3.50625,-12.731251,-53.606251
1782298955640,0.323031,0.662812,9.823637,0.013469,-0.070472,0.034222,-3.73125,-14.043751,-54.825001
1782298955647,0.301496,0.624527,10.043776,0.003695,-0.102847,0.024448,-3.73125,-14.043751,-54.825001
1782298955648,0.301496,0.624527,10.043776,0.003695,-0.102847,0.024448,-4.725,-12.1125,-53.587502
1782298955656,0.301496,0.624527,10.043776,0.001251,-0.122395,0.023227,-4.725,-12.1125,-53.587502
1782298955657,0.351745,0.555135,10.25913,0.001251,-0.122395,0.023227,-4.725,-12.1125,-53.587502
1782298955659,0.351745,0.555135,10.25913,0.001251,-0.122395,0.023227,-4.21875,-13.14375,-54.356251
1782298955664,0.351745,0.555135,10.25913,0.017745,-0.13278,0.029335,-4.21875,-13.14375,-54.356251
1782298955665,0.397209,0.480957,10.412271,0.017745,-0.13278,0.029335,-4.21875,-13.14375,-54.356251
1782298955670,0.397209,0.480957,10.412271,0.017745,-0.13278,0.029335,-4.6875,-12.69375,-54.356251
1782298955673,0.428315,0.445065,10.484055,0.055618,-0.136445,0.042164,-4.6875,-12.69375,-54.356251
1782298955678,0.428315,0.445065,10.484055,0.055618,-0.136445,0.042164,-5.4,-13.875001,-54.375004
1782298955681,0.447458,0.447458,10.491234,0.107542,-0.129725,0.0611,-5.4,-13.875001,-54.375004
1782298955689,0.447458,0.447458,10.491234,0.107542,-0.129725,0.0611,-4.55625,-12.562501,-54.056252
1782298955690,0.447458,0.447458,10.491234,0.168628,-0.119952,0.086757,-4.55625,-12.562501,-54.056252
1782298955691,0.48335,0.440279,10.486449,0.168628,-0.119952,0.086757,-4.55625,-12.562501,-54.056252
1782298955710,0.490529,0.361316,10.771194,0.264534,-0.121173,0.141735,-4.2,-13.14375,-55.125004
1782298955716,0.447458,0.342174,10.976977,0.284082,-0.116286,0.165558,-4.2,-13.14375,-55.125004
1782298955719,0.447458,0.342174,10.976977,0.284082,-0.116286,0.165558,-4.65,-13.875001,-54.675003
1782298955725,0.409173,0.291924,11.110975,0.283471,-0.10468,0.190604,-4.65,-13.875001,-54.675003
1782298955729,0.409173,0.291924,11.110975,0.283471,-0.10468,0.190604,-4.8,-14.025001,-54.075001
1782298955733,0.378066,0.160319,11.233009,0.26209,-0.09063,0.21626,-4.8,-14.025001,-54.075001
1782298955738,0.378066,0.160319,11.233009,0.26209,-0.09063,0.21626,-5.7375,-14.175,-53.156254
1782298955741,0.378066,0.160319,11.233009,0.230936,-0.073526,0.236419,-5.7375,-14.175,-53.156254
1782298955742,0.421137,0.165105,11.378972,0.230936,-0.073526,0.236419,-5.7375,-14.175,-53.156254
1782298955749,0.421137,0.165105,11.378972,0.230936,-0.073526,0.236419,-1.78125,-14.3625,-53.775002
1782298955750,0.421137,0.165105,11.378972,0.211389,-0.038707,0.244971,-1.78125,-14.3625,-53.775002
1782298955751,0.325424,0.189033,11.498612,0.211389,-0.038707,0.244971,-1.78125,-14.3625,-53.775002
1782298955761,0.224925,0.303888,11.53929,0.218719,0.005276,0.259021,-5.1375,-14.025001,-53.006252
1782298955769,0.133998,0.39003,11.503398,0.256593,0.040706,0.268794,-5.1375,-14.025001,-53.006252
1782298955770,0.133998,0.39003,11.503398,0.256593,0.040706,0.268794,-3.39375,-15.225,-54.375004
1782298955777,0.09332,0.40678,11.46272,0.312792,0.066362,0.278568,-3.39375,-15.225,-54.375004
1782298955781,0.09332,0.40678,11.46272,0.312792,0.066362,0.278568,-3.15,-13.89375,-54.375004
1782298955786,0.040678,0.385244,11.44597,0.368381,0.087742,0.288342,-3.15,-13.89375,-54.375004
1782298955790,0.040678,0.385244,11.44597,0.368381,0.087742,0.288342,-3.69375,-15.50625,-54.543751
1782298955805,-0.236889,0.562313,11.544076,0.430689,0.130503,0.306057,-4.96875,-16.40625,-51.806252
1782298955809,-0.236889,0.562313,11.544076,0.430689,0.130503,0.306057,-5.4,-14.906251,-53.925003
1782298955813,-0.430708,0.717847,11.436399,0.428246,0.139666,0.313388,-5.4,-14.906251,-53.925003
1782298955821,-0.579063,0.801596,11.161224,0.389761,0.124394,0.320718,-4.05,-14.043751,-54.075001
1782298955830,-0.66999,0.646062,10.943477,0.29691,0.068195,0.326827,-4.65,-15.656251,-52.875004
1782298955836,-0.66999,0.646062,10.943477,0.158243,0.013828,0.331713,-4.65,-15.656251,-52.875004
1782298955837,-0.72024,0.378066,11.12294,0.158243,0.013828,0.331713,-4.65,-15.656251,-52.875004
1782298955838,-0.72024,0.378066,11.12294,0.158243,0.013828,0.331713,-4.74375,-15.056251,-55.293751
1782298955845,-0.696311,-0.055035,11.551255,0.015301,-0.003276,0.339044,-4.74375,-15.056251,-55.293751
1782298955850,-0.696311,-0.055035,11.551255,0.015301,-0.003276,0.339044,-4.48125,-16.106251,-52.725002
1782298955854,-0.681954,-0.435494,11.840786,-0.10565,-0.009385,0.345763,-4.48125,-16.106251,-52.725002
1782298955860,-0.681954,-0.435494,11.840786,-0.10565,-0.009385,0.345763,-4.575,-17.418751,-53.643753
1782298955862,-0.643669,-0.62692,11.929321,-0.196058,-0.047259,0.345152,-4.575,-17.418751,-53.643753
1782298955870,-0.57667,-0.717847,11.893428,-0.244316,-0.088798,0.338433,-3.225,-17.2875,-53.493752
1782298955880,-0.452243,-0.825524,11.627824,-0.237597,-0.107734,0.32255,-4.1625,-15.656251,-53.625004
1782298955889,-0.339781,-0.863809,11.156438,-0.184452,-0.121173,0.299948,-5.79375,-16.087502,-54.093754
1782298955896,-0.339781,-0.863809,11.156438,-0.106872,-0.136445,0.27307,-5.79375,-16.087502,-54.093754
1782298955897,-0.327817,-0.792024,10.632411,-0.106872,-0.136445,0.27307,-5.79375,-16.087502,-54.093754
1782298955898,-0.327817,-0.792024,10.632411,-0.106872,-0.136445,0.27307,-5.79375,-16.087502,-54.093754
1782298955911,-0.327817,-0.562313,10.172988,-0.024405,-0.144386,0.248636,-5.79375,-16.087502,-54.093754
1782298955912,-0.327817,-0.562313,10.172988,-0.024405,-0.144386,0.248636,-4.03125,-15.525001,-53.475002
1782298955913,-0.308674,-0.356531,9.794922,0.05012,-0.139499,0.228477,-4.03125,-15.525001,-53.475002
1782298955919,-0.308674,-0.356531,9.794922,0.05012,-0.139499,0.228477,-6.375,-16.950001,-54.393753
1782298955922,-0.241675,-0.129212,9.579568,0.116094,-0.127282,0.212595,-6.375,-16.950001,-54.393753
1782298955928,-0.241675,-0.129212,9.579568,0.116094,-0.127282,0.212595,-4.10625,-16.6875,-54.693752
1782298955930,-0.143569,0.07657,9.447963,0.171072,-0.105902,0.200988,-4.10625,-16.6875,-54.693752
1782298955939,-0.143569,0.07657,9.447963,0.212,-0.079024,0.188771,-4.10625,-16.6875,-54.693752
1782298955940,-0.143569,0.07657,9.447963,0.212,-0.079024,0.188771,-4.74375,-16.087502,-54.093754
1782298955941,-0.026321,0.260818,9.364214,0.212,-0.079024,0.188771,-4.74375,-16.087502,-54.093754
1782298955949,0.007178,0.323031,9.285251,0.229104,-0.058865,0.169834,-4.74375,-16.087502,-54.093754
1782298955950,0.007178,0.323031,9.285251,0.229104,-0.058865,0.169834,-4.66875,-15.95625,-52.106251
1782298955957,0.074178,0.387637,9.24218,0.214443,-0.036263,0.148454,-4.66875,-15.95625,-52.106251
1782298955962,0.074178,0.387637,9.24218,0.214443,-0.036263,0.148454,-4.93125,-16.387501,-52.875004
1782298955966,0.102891,0.411565,9.19911,0.166185,-0.008774,0.131961,-4.93125,-16.387501,-52.875004
1782298955971,0.102891,0.411565,9.19911,0.166185,-0.008774,0.131961,-5.41875,-15.20625,-52.856251
1782298955974,0.12682,0.301496,9.172789,0.09227,0.006497,0.128906,-5.41875,-15.20625,-52.856251
1782298955979,0.12682,0.301496,9.172789,0.09227,0.006497,0.128906,-5.4,-16.6875,-51.825001
1782298955982,0.124427,0.117248,9.120146,0.011025,-0.000222,0.135015,-5.4,-16.6875,-51.825001
1782298955989,0.124427,0.117248,9.120146,0.011025,-0.000222,0.135015,-5.30625,-16.96875,-54.393753
1782298955991,0.143569,-0.038285,9.110575,-0.058003,-0.007553,0.146011,-5.30625,-16.96875,-54.393753
1782298956000,0.143569,-0.038285,9.110575,-0.094044,-0.005109,0.15273,-5.30625,-16.96875,-54.393753
1782298956001,0.172283,-0.11007,9.022041,-0.094044,-0.005109,0.15273,-5.34375,-17.71875,-52.593754
1782298956017,0.131605,-0.153141,8.629618,-0.102596,0.013217,0.165558,-4.59375,-16.387501,-53.643753
1782298956019,0.131605,-0.153141,8.629618,-0.102596,0.013217,0.165558,-4.4625,-16.837502,-52.725002
1782298956025,0.114855,-0.138784,8.553048,-0.108704,0.015049,0.175943,-4.4625,-16.837502,-52.725002
1782298956029,0.114855,-0.138784,8.553048,-0.108704,0.015049,0.175943,-5.34375,-17.418751,-52.893753
1782298956033,0.071785,-0.100499,8.612868,-0.121533,0.013828,0.185106,-5.34375,-17.418751,-52.893753
1782298956039,0.071785,-0.100499,8.612868,-0.121533,0.013828,0.185106,-5.83125,-16.087502,-53.475002
1782298956042,0.021535,-0.083749,8.68226,-0.144135,0.017493,0.190604,-5.83125,-16.087502,-53.475002
1782298956049,0.021535,-0.083749,8.68226,-0.144135,0.017493,0.190604,-5.6625,-16.668751,-53.175003
1782298956050,-0.074178,-0.100499,8.68226,-0.144135,0.017493,0.190604,-5.6625,-16.668751,-53.175003
1782298956051,-0.074178,-0.100499,8.68226,-0.178954,0.021769,0.186328,-5.6625,-16.668751,-53.175003
1782298956060,-0.157926,-0.074178,8.560226,-0.227823,0.012606,0.169223,-4.8,-14.775001,-53.775002
1782298956069,-0.253639,0.011964,8.423835,-0.277303,-0.016105,0.143567,-6.375,-15.918751,-55.143753
1782298956077,-0.294317,0.095713,8.241981,-0.313344,-0.052146,0.111802,-6.375,-15.918751,-55.143753
1782298956079,-0.294317,0.095713,8.241981,-0.313344,-0.052146,0.111802,-4.95,-15.95625,-52.575001
1782298956085,-0.294317,0.095713,8.241981,-0.320064,-0.087576,0.079426,-4.95,-15.95625,-52.575001
1782298956086,-0.299103,0.167498,8.081662,-0.320064,-0.087576,0.079426,-4.95,-15.95625,-52.575001
1782298956089,-0.299103,0.167498,8.081662,-0.320064,-0.087576,0.079426,-6.28125,-15.4875,-54.075001
1782298956093,-0.246461,0.260818,7.890236,-0.320064,-0.087576,0.079426,-6.28125,-15.4875,-54.075001
1782298956094,-0.246461,0.260818,7.890236,-0.293186,-0.113843,0.051937,-6.28125,-15.4875,-54.075001
1782298956099,-0.246461,0.260818,7.890236,-0.293186,-0.113843,0.051937,-5.7375,-15.656251,-51.806252
1782298956103,-0.165105,0.39003,7.69881,-0.236986,-0.129725,0.029946,-5.7375,-15.656251,-51.806252
1782298956109,-0.165105,0.39003,7.69881,-0.236986,-0.129725,0.029946,-4.93125,-14.906251,-54.375004
1782298956124,-0.057428,0.567099,7.550455,-0.09832,-0.129725,-0.000597,-6.61875,-14.7375,-53.775002
1782298956125,0.023928,0.693919,7.459528,-0.09832,-0.129725,-0.000597,-6.61875,-14.7375,-53.775002
1782298956129,0.023928,0.693919,7.459528,-0.061668,-0.128504,-0.017701,-6.61875,-14.7375,-53.775002
1782298956130,0.066999,0.770489,7.449956,-0.061668,-0.128504,-0.017701,-6.39375,-14.025001,-51.937504
1782298956136,0.102891,0.770489,7.545669,-0.071442,-0.141943,-0.034195,-6.39375,-14.025001,-51.937504
1782298956139,0.102891,0.770489,7.545669,-0.071442,-0.141943,-0.034195,-5.85,-14.75625,-54.075001
1782298956145,0.162712,0.727418,7.82563,-0.123365,-0.165766,-0.047023,-5.85,-14.75625,-54.075001
1782298956150,0.162712,0.727418,7.82563,-0.123365,-0.165766,-0.047023,-4.63125,-15.95625,-52.875004
1782298956154,0.148355,0.51685,8.273087,-0.196058,-0.168821,-0.054964,-4.63125,-15.95625,-52.875004
1782298956159,0.148355,0.51685,8.273087,-0.196058,-0.168821,-0.054964,-5.85,-15.056251,-53.475002
1782298956162,0.18664,0.48335,8.799509,-0.264475,-0.16088,-0.05924,-5.85,-15.056251,-53.475002
1782298956168,0.18664,0.48335,8.799509,-0.264475,-0.16088,-0.05924,-5.6625,-16.387501,-53.643753
1782298956171,0.155533,0.437887,9.191931,-0.301738,-0.160269,-0.059851,-5.6625,-16.387501,-53.643753
1782298956180,0.229711,0.351745,9.421642,-0.301127,-0.185925,-0.061683,-7.10625,-14.75625,-52.256252
1782298956190,0.248854,0.232104,9.558033,-0.265697,-0.218912,-0.070236,-6.75,-15.187501,-53.625004
1782298956197,0.248854,0.232104,9.558033,-0.210719,-0.225631,-0.075733,-6.75,-15.187501,-53.625004
1782298956198,0.263211,0.153141,9.524534,-0.210719,-0.225631,-0.075733,-6.43125,-14.887501,-54.375004
1782298956205,0.263211,0.153141,9.524534,-0.16185,-0.199975,-0.08062,-6.43125,-14.887501,-54.375004
1782298956206,0.263211,0.143569,9.412071,-0.16185,-0.199975,-0.08062,-6.43125,-14.887501,-54.375004
1782298956225,0.263211,0.143569,9.412071,-0.16185,-0.199975,-0.08062,-5.85,-14.75625,-53.775002
1782298956226,0.222533,0.232104,9.354643,-0.12642,-0.157825,-0.083675,-7.36875,-14.7375,-53.775002
1782298956228,0.222533,0.232104,9.354643,-0.12642,-0.157825,-0.083675,-6.28125,-15.4875,-54.075001
1782298956230,0.222533,0.232104,9.354643,-0.064722,-0.061919,-0.06657,-6.28125,-15.4875,-54.075001
1782298956231,0.122034,0.380459,9.541283,-0.064722,-0.061919,-0.06657,-6.28125,-15.4875,-54.075001
1782298956239,0.122034,0.380459,9.541283,-0.014631,-0.025268,-0.05191,-6.28125,-15.4875,-54.075001
1782298956240,0.122034,0.428315,9.694424,-0.014631,-0.025268,-0.05191,-7.2375,-13.856251,-53.906254
1782298956249,0.122034,0.428315,9.694424,0.047066,0.011995,-0.042747,-7.2375,-13.856251,-53.906254
1782298956250,0.136391,0.488136,9.720745,0.047066,0.011995,-0.042747,-5.8875,-15.50625,-52.256252
1782298956257,0.062213,0.588634,9.636997,0.102044,0.051091,-0.042747,-5.8875,-15.50625,-52.256252
1782298956259,0.062213,0.588634,9.636997,0.102044,0.051091,-0.042747,-7.29375,-16.5,-54.543751
1782298956265,0.062213,0.588634,9.636997,0.142972,0.070027,-0.053131,-7.29375,-16.5,-54.543751
1782298956266,-0.0335,0.705883,9.577176,0.142972,0.070027,-0.053131,-7.29375,-16.5,-54.543751
1782298956270,-0.0335,0.705883,9.577176,0.142972,0.070027,-0.053131,-6.45,-15.637501,-53.175003
1782298956274,-0.0335,0.705883,9.577176,0.171682,0.063919,-0.069014,-6.45,-15.637501,-53.175003
1782298956275,-0.100499,0.811167,9.57239,0.171682,0.063919,-0.069014,-6.45,-15.637501,-53.175003
1782298956279,-0.100499,0.811167,9.57239,0.171682,0.063919,-0.069014,-8.212501,-15.6,-54.693752
1782298956283,-0.157926,0.887737,9.668103,0.186954,0.049869,-0.08734,-8.212501,-15.6,-54.693752
1782298956289,-0.157926,0.887737,9.668103,0.186954,0.049869,-0.08734,-7.0125,-15.468751,-54.543751
1782298956291,-0.157926,0.887737,9.668103,0.193674,0.052923,-0.104444,-7.0125,-15.468751,-54.543751
1782298956292,-0.148355,0.875773,9.859529,0.193674,0.052923,-0.104444,-7.0125,-15.468751,-54.543751
1782298956300,-0.198604,0.842274,10.084454,0.199171,0.071249,-0.121548,-7.0125,-15.468751,-54.543751
1782298956301,-0.198604,0.842274,10.084454,0.199171,0.071249,-0.121548,-5.8875,-15.806251,-51.956253
1782298956310,-0.260818,0.849452,10.254344,0.200393,0.094462,-0.134376,-6.13125,-15.937501,-53.625004
1782298956316,-0.260818,0.849452,10.254344,0.190619,0.112177,-0.141096,-6.13125,-15.937501,-53.625004
1782298956317,-0.318245,0.875773,10.311772,0.190619,0.112177,-0.141096,-6.13125,-15.937501,-53.625004
1782298956333,-0.334995,0.851845,10.409878,0.168628,0.107901,-0.146594,-5.83125,-16.087502,-53.475002
1782298956334,-0.334995,0.851845,10.409878,0.146026,0.093851,-0.151481,-5.83125,-16.087502,-53.475002
1782298956335,-0.349352,0.794417,10.613268,0.146026,0.093851,-0.151481,-5.83125,-16.087502,-53.475002
1782298956339,-0.349352,0.794417,10.613268,0.146026,0.093851,-0.151481,-5.025,-16.087502,-54.843754
1782298956342,-0.299103,0.646062,10.850157,0.122813,0.085299,-0.156368,-5.025,-16.087502,-54.843754
1782298956348,-0.299103,0.646062,10.850157,0.122813,0.085299,-0.156368,-5.64375,-16.368752,-53.943752
1782298956351,-0.229711,0.399601,11.132511,0.108153,0.087132,-0.157589,-5.64375,-16.368752,-53.943752
1782298956359,-0.229711,0.399601,11.132511,0.108153,0.087132,-0.157589,-5.56875,-15.056251,-53.006252
1782298956360,-0.162712,0.129212,11.417256,0.101433,0.09324,-0.155757,-5.56875,-15.056251,-53.006252
1782298956370,-0.078963,-0.062213,11.646967,0.107542,0.103625,-0.150259,-6.1125,-17.418751,-52.575001
1782298956377,-0.038285,-0.155533,11.769002,0.128311,0.110344,-0.148426,-6.1125,-17.418751,-52.575001
1782298956378,-0.038285,-0.155533,11.769002,0.128311,0.110344,-0.148426,-6.1125,-17.418751,-52.575001
1782298956385,-0.038285,-0.155533,11.769002,0.163741,0.115842,-0.152091,-6.1125,-17.418751,-52.575001
1782298956386,-0.069392,-0.100499,11.757037,0.163741,0.115842,-0.152091,-6.1125,-17.418751,-52.575001
1782298956388,-0.069392,-0.100499,11.757037,0.163741,0.115842,-0.152091,-7.0125,-16.06875,-53.793751
1782298956394,-0.102891,0.083749,11.587146,0.201004,0.109734,-0.163087,-7.0125,-16.06875,-53.793751
1782298956400,-0.102891,0.083749,11.587146,0.201004,0.109734,-0.163087,-4.14375,-16.987501,-53.193752
1782298956403,-0.102891,0.083749,11.587146,0.218108,0.073082,-0.17958,-4.14375,-16.987501,-53.193752
1782298956404,-0.071785,0.265603,11.3694,0.218108,0.073082,-0.17958,-4.14375,-16.987501,-53.193752
1782298956409,-0.071785,0.265603,11.3694,0.218108,0.073082,-0.17958,-4.14375,-16.987501,-53.193752
1782298956411,0.055035,0.346959,11.199509,0.201004,0.034597,-0.20035,-4.14375,-16.987501,-53.193752
1782298956426,0.172283,0.366102,11.189938,0.1558,0.018104,-0.219287,-4.85625,-16.96875,-54.693752
1782298956429,0.212961,0.385244,11.249759,0.100822,0.040095,-0.235169,-6.20625,-17.550001,-54.093754
1782298956437,0.18664,0.457029,11.252152,0.041568,0.081023,-0.243721,-6.20625,-17.550001,-54.093754
1782298956438,0.18664,0.457029,11.252152,0.041568,0.081023,-0.243721,-4.7625,-16.5375,-53.025002
1782298956445,0.18664,0.457029,11.252152,-0.020129,0.117675,-0.252273,-4.7625,-16.5375,-53.025002
1782298956446,0.12682,0.454636,11.185153,-0.020129,0.117675,-0.252273,-4.7625,-16.5375,-53.025002
1782298956448,0.12682,0.454636,11.185153,-0.020129,0.117675,-0.252273,-5.7,-19.3125,-54.112503
1782298956454,0.064606,0.263211,11.177974,-0.090989,0.146385,-0.263269,-5.7,-19.3125,-54.112503
1782298956460,0.064606,0.263211,11.177974,-0.090989,0.146385,-0.263269,-6.7125,-16.668751,-53.643753
1782298956462,0.064606,0.263211,11.177974,-0.165515,0.166544,-0.271821,-6.7125,-16.668751,-53.643753
1782298956463,0.066999,-0.071785,11.297616,-0.165515,0.166544,-0.271821,-6.7125,-16.668751,-53.643753
1782298956469,0.066999,-0.071785,11.297616,-0.165515,0.166544,-0.271821,-4.9125,-16.987501,-52.575001
1782298956471,0.066999,-0.071785,11.297616,-0.221714,0.188535,-0.274264,-4.9125,-16.987501,-52.575001
1782298956472,0.160319,-0.488136,11.570397,-0.221714,0.188535,-0.274264,-4.9125,-16.987501,-52.575001
1782298956479,0.160319,-0.488136,11.570397,-0.221714,0.188535,-0.274264,-4.81875,-18.150002,-54.412502
1782298956480,0.306281,-0.825524,11.824036,-0.236986,0.230685,-0.268767,-4.81875,-18.150002,-54.412502
1782298956490,0.306281,-0.825524,11.824036,-0.197891,0.29116,-0.25716,-4.81875,-18.150002,-54.412502
1782298956491,0.416351,-1.064806,11.950856,-0.197891,0.29116,-0.25716,-4.9125,-17.418751,-52.575001
1782298956497,0.540778,-1.148555,11.831214,-0.118478,0.329645,-0.241889,-4.9125,-17.418751,-52.575001
1782298956499,0.540778,-1.148555,11.831214,-0.118478,0.329645,-0.241889,-5.30625,-17.700001,-53.943752
1782298956527,0.435494,-0.693919,10.558233,-0.02074,0.336975,-0.224173,-4.4625,-16.837502,-53.025002
1782298956528,0.435494,-0.693919,10.558233,-0.02074,0.336975,-0.224173,-3.65625,-17.587502,-53.793751
1782298956531,0.349352,-0.366102,10.086847,0.100211,0.219078,-0.166752,-3.65625,-17.587502,-53.793751
1782298956539,0.349352,-0.366102,10.086847,0.100211,0.219078,-0.166752,-4.74375,-17.56875,-52.743752
1782298956540,0.258425,-0.081356,9.794922,0.044012,0.189146,-0.161254,-4.74375,-17.56875,-52.743752
1782298956550,0.172283,0.007178,9.648961,-0.036622,0.157992,-0.160033,-3.35625,-18.46875,-52.593754
1782298956557,0.081356,0.043071,9.601104,-0.120922,0.136001,-0.1582,-3.35625,-18.46875,-52.593754
1782298956558,0.081356,0.043071,9.601104,-0.120922,0.136001,-0.1582,-3.95625,-18.31875,-52.743752
1782298956566,0.004786,0.047856,9.658532,-0.185063,0.12867,-0.156368,-3.95625,-18.31875,-52.743752
1782298956569,0.004786,0.047856,9.658532,-0.185063,0.12867,-0.156368,-2.925,-16.556252,-54.093754
1782298956574,-0.055035,0.009571,9.627425,-0.21133,0.122562,-0.156978,-2.925,-16.556252,-54.093754
1782298956579,-0.055035,0.009571,9.627425,-0.21133,0.122562,-0.156978,-3.43125,-16.40625,-52.575001
1782298956582,-0.055035,0.009571,9.627425,-0.207665,0.103625,-0.158811,-3.43125,-16.40625,-52.575001
1782298956583,-0.086142,-0.069392,9.524534,-0.207665,0.103625,-0.158811,-3.43125,-16.40625,-52.575001
1782298956589,-0.086142,-0.069392,9.524534,-0.207665,0.103625,-0.158811,-3.28125,-15.825001,-53.025002
1782298956591,-0.014357,-0.198604,9.433607,-0.186895,0.06514,-0.156368,-3.28125,-15.825001,-53.025002
1782298956599,-0.014357,-0.198604,9.433607,-0.186895,0.06514,-0.156368,-3.4125,-16.40625,-53.175003
1782298956600,0.066999,-0.339781,9.507783,-0.149021,0.032765,-0.149037,-3.4125,-16.40625,-53.175003
1782298956610,0.066999,-0.339781,9.507783,-0.094655,0.020547,-0.13682,-3.4125,-16.40625,-53.175003
1782298956611,0.212961,-0.387637,9.617854,-0.094655,0.020547,-0.13682,-3.75,-16.125,-52.275002
1782298956617,0.212961,-0.387637,9.617854,-0.027459,0.029099,-0.131322,-3.75,-16.125,-52.275002
1782298956619,0.270389,-0.476172,9.569997,-0.027459,0.029099,-0.131322,-3.39375,-17.00625,-52.875004
1782298956626,0.418744,-0.454636,9.371393,0.030573,0.044982,-0.127657,-3.39375,-17.00625,-52.875004
1782298956629,0.418744,-0.454636,9.371393,0.030573,0.044982,-0.127657,-4.1625,-16.987501,-52.575001
1782298956635,0.418744,-0.454636,9.371393,0.054396,0.069416,-0.133765,-4.1625,-16.987501,-52.575001
1782298956646,0.504886,-0.165105,8.871293,0.042179,0.093851,-0.139874,-3.7125,-17.306252,-52.275002
1782298956648,0.504886,-0.165105,8.871293,0.042179,0.093851,-0.139874,-2.49375,-17.306252,-52.275002
1782298956651,0.504886,-0.165105,8.871293,0.006749,0.104847,-0.144761,-2.49375,-17.306252,-52.275002
1782298956652,0.485743,-0.133998,8.722938,0.006749,0.104847,-0.144761,-2.49375,-17.306252,-52.275002
1782298956658,0.485743,-0.133998,8.722938,0.006749,0.104847,-0.144761,-3.8625,-15.656251,-53.625004
1782298956660,0.468993,-0.124427,8.684653,-0.029903,0.115231,-0.145983,-3.8625,-15.656251,-53.625004
1782298956669,0.401994,-0.167498,8.703796,-0.054337,0.133557,-0.147815,-3.24375,-17.887501,-52.275002
1782298956677,0.318245,-0.20339,8.710974,-0.053116,0.150051,-0.15087,-3.24375,-17.887501,-52.275002
1782298956678,0.318245,-0.20339,8.710974,-0.053116,0.150051,-0.15087,-4.03125,-16.856251,-52.275002
1782298956686,0.229711,-0.256032,8.706189,-0.028681,0.154327,-0.1582,-4.03125,-16.856251,-52.275002
1782298956688,0.229711,-0.256032,8.706189,-0.028681,0.154327,-0.1582,-3.225,-17.887501,-52.743752
1782298956695,0.145962,-0.272782,8.696617,3e-05,0.146996,-0.169196,-3.225,-17.887501,-52.743752
1782298956699,0.145962,-0.272782,8.696617,3e-05,0.146996,-0.169196,-2.98125,-16.575001,-52.275002
1782298956703,0.12682,-0.282353,8.658331,0.025686,0.133557,-0.180802,-2.98125,-16.575001,-52.275002
1782298956709,0.12682,-0.282353,8.658331,0.025686,0.133557,-0.180802,-2.94375,-16.556252,-53.493752
1782298956712,0.138784,-0.275175,8.689438,0.040347,0.106679,-0.196685,-2.94375,-16.556252,-53.493752
1782298956719,0.138784,-0.275175,8.689438,0.040347,0.106679,-0.196685,-4.05,-16.556252,-51.975002
1782298956720,0.138784,-0.236889,8.780365,0.043401,0.07186,-0.212567,-4.05,-16.556252,-51.975002
1782298956730,0.112463,-0.200997,8.878472,0.039125,0.033375,-0.222952,-4.1625,-16.706251,-52.575001
1782298956745,0.095713,-0.112463,8.897614,0.033016,-0.003276,-0.223563,-3.1125,-17.456251,-52.125004
1782298956746,0.107677,0.028714,8.840187,0.026297,-0.025878,-0.213789,-3.1125,-17.456251,-52.125004
1782298956749,0.107677,0.028714,8.840187,0.026297,-0.025878,-0.213789,-2.04375,-17.475,-52.125004
1782298956754,0.107677,0.028714,8.840187,0.017745,-0.039317,-0.197906,-2.04375,-17.475,-52.125004
1782298956755,0.131605,0.193819,8.636797,0.017745,-0.039317,-0.197906,-2.04375,-17.475,-52.125004
1782298956761,0.131605,0.193819,8.636797,0.017745,-0.039317,-0.197906,-1.55625,-17.456251,-53.193752
1782298956763,0.167498,0.356531,8.409479,3e-05,-0.047259,-0.176526,-1.55625,-17.456251,-53.193752
1782298956769,0.167498,0.356531,8.409479,3e-05,-0.047259,-0.176526,-5.08125,-17.868752,-51.525002
1782298956771,0.167498,0.356531,8.409479,-0.020129,-0.057643,-0.153313,-5.08125,-17.868752,-51.525002
1782298956772,0.177069,0.48335,8.241981,-0.020129,-0.057643,-0.153313,-5.08125,-17.868752,-51.525002
1782298956778,0.177069,0.48335,8.241981,-0.020129,-0.057643,-0.153313,-2.3625,-17.025002,-52.125004
1782298956780,0.196211,0.579063,8.163018,-0.04212,-0.060087,-0.125213,-2.3625,-17.025002,-52.125004
1782298956790,0.196211,0.579063,8.163018,-0.054337,-0.041761,-0.091616,-2.3625,-17.025002,-52.125004
1782298956791,0.205783,0.624527,8.196517,-0.054337,-0.041761,-0.091616,-2.53125,-17.925001,-50.456253
1782298956797,0.205783,0.624527,8.196517,-0.051894,-0.011829,-0.056797,-2.53125,-17.925001,-50.456253
1782298956798,0.198604,0.636491,8.270694,-0.051894,-0.011829,-0.056797,-2.53125,-17.925001,-50.456253
1782298956799,0.198604,0.636491,8.270694,-0.051894,-0.011829,-0.056797,-2.79375,-17.00625,-52.575001
1782298956806,0.198604,0.636491,8.270694,-0.040288,0.021158,-0.02381,-2.79375,-17.00625,-52.575001
1782298956807,0.167498,0.646062,8.297016,-0.040288,0.021158,-0.02381,-2.79375,-17.00625,-52.575001
1782298956808,0.167498,0.646062,8.297016,-0.040288,0.021158,-0.02381,-2.30625,-18.1875,-52.593754
1782298956815,0.167498,0.646062,8.297016,-0.026238,0.030932,0.001846,-2.30625,-18.1875,-52.593754
1782298956816,0.100499,0.658026,8.261123,-0.026238,0.030932,0.001846,-2.30625,-18.1875,-52.593754
1782298956821,0.100499,0.658026,8.261123,-0.026238,0.030932,0.001846,-1.725,-17.325001,-52.725002
1782298956824,0.057428,0.617348,8.301801,-0.018907,0.01566,0.021394,-1.725,-17.325001,-52.725002
1782298956829,0.057428,0.617348,8.301801,-0.018907,0.01566,0.021394,-3.3375,-18.918751,-52.893753
1782298956832,-0.011964,0.57667,8.442977,-0.018296,-0.014272,0.034833,-3.3375,-18.918751,-52.893753
1782298956849,-0.069392,0.569492,8.615261,-0.025016,-0.046648,0.039109,-2.49375,-17.90625,-51.975002
1782298956850,-0.105284,0.61017,8.780365,-0.040898,-0.071693,0.038498,-2.49375,-17.90625,-51.975002
1782298956857,-0.117248,0.646062,8.8689,-0.055559,-0.094295,0.036055,-2.49375,-17.90625,-51.975002
1782298956859,-0.117248,0.646062,8.8689,-0.055559,-0.094295,0.036055,-3.375,-17.4375,-53.193752
1782298956866,-0.129212,0.677169,8.921543,-0.067776,-0.107123,0.039109,-3.375,-17.4375,-53.193752
1782298956869,-0.129212,0.677169,8.921543,-0.067776,-0.107123,0.039109,-3.375,-17.4375,-53.193752
1782298956874,-0.129212,0.677169,8.921543,-0.078161,-0.110789,0.045829,-3.375,-17.4375,-53.193752
1782298956875,-0.112463,0.696311,8.986148,-0.078161,-0.110789,0.045829,-3.375,-17.4375,-53.193752
1782298956880,-0.112463,0.696311,8.986148,-0.078161,-0.110789,0.045829,-3.24375,-17.887501,-52.275002
1782298956883,-0.055035,0.684347,9.081861,-0.078772,-0.109567,0.052548,-3.24375,-17.887501,-52.275002
1782298956889,-0.055035,0.684347,9.081861,-0.078772,-0.109567,0.052548,-3.20625,-18.637501,-52.293751
1782298956891,-0.055035,0.684347,9.081861,-0.064111,-0.105291,0.058657,-3.20625,-18.637501,-52.293751
1782298956892,-0.014357,0.650848,9.194324,-0.064111,-0.105291,0.058657,-3.20625,-18.637501,-52.293751
1782298956899,-0.014357,0.650848,9.194324,-0.064111,-0.105291,0.058657,-2.925,-16.856251,-53.793751
1782298956901,-0.007178,0.691526,9.292429,-0.037233,-0.088798,0.062322,-2.925,-16.856251,-53.793751
1782298956910,0.007178,0.760918,9.378571,-0.008523,-0.074748,0.064155,-2.45625,-17.606251,-53.493752
1782298956918,0.007178,0.760918,9.378571,0.012858,-0.074748,0.066598,-2.45625,-17.606251,-53.493752
1782298956919,0.07657,0.825524,9.414464,0.012858,-0.074748,0.066598,-2.79375,-16.706251,-52.875004
1782298956927,0.172283,0.815953,9.505391,0.015301,-0.083911,0.065376,-2.79375,-16.706251,-52.875004
1782298956929,0.172283,0.815953,9.505391,0.015301,-0.083911,0.065376,-2.83125,-15.975,-52.575001
1782298956935,0.172283,0.815953,9.505391,0.003084,-0.107123,0.060489,-2.83125,-15.975,-52.575001
1782298956949,0.172283,0.815953,9.505391,-0.02074,-0.137056,0.05377,-2.83125,-15.975,-52.575001
1782298956950,0.311067,0.648455,10.08924,-0.02074,-0.137056,0.05377,-3.6375,-17.868752,-54.112503
1782298956952,0.311067,0.648455,10.08924,-0.046396,-0.15416,0.048883,-3.6375,-17.868752,-54.112503
1782298956953,0.320638,0.619741,10.450556,-0.046396,-0.15416,0.048883,-3.6375,-17.868752,-54.112503
1782298956959,0.320638,0.619741,10.450556,-0.046396,-0.15416,0.048883,-2.94375,-17.90625,-51.975002
1782298956960,0.320638,0.619741,10.450556,-0.064722,-0.151106,0.050716,-2.94375,-17.90625,-51.975002
1782298956961,0.306281,0.638884,10.692231,-0.064722,-0.151106,0.050716,-2.94375,-17.90625,-51.975002
1782298956970,0.306281,0.667598,10.692231,-0.065333,-0.143775,0.055603,-4.78125,-16.5375,-52.725002
1782298956978,0.27996,0.677169,10.567804,-0.053727,-0.142554,0.065376,-3.075,-18.1875,-52.143753
1782298956986,0.29671,0.66999,10.412271,-0.032346,-0.142554,0.080037,-3.075,-18.1875,-52.143753
1782298956988,0.29671,0.66999,10.412271,-0.032346,-0.142554,0.080037,-4.03125,-16.556252,-52.275002
1782298956995,0.337388,0.612563,10.388342,-0.005468,-0.148662,0.094698,-4.03125,-16.556252,-52.275002
1782298957000,0.337388,0.612563,10.388342,-0.005468,-0.148662,0.094698,-2.85,-17.75625,-50.606251
1782298957005,0.361316,0.564706,10.52234,0.028129,-0.157825,0.107526,-2.85,-17.75625,-50.606251
1782298957009,0.361316,0.564706,10.52234,0.028129,-0.157825,0.107526,-3.4125,-16.706251,-52.875004
1782298957012,0.361316,0.564706,10.52234,0.062338,-0.159047,0.122187,-3.4125,-16.706251,-52.875004
1782298957013,0.361316,0.497707,10.811872,0.062338,-0.159047,0.122187,-3.4125,-16.706251,-52.875004
1782298957019,0.361316,0.497707,10.811872,0.062338,-0.159047,0.122187,-3.39375,-17.4375,-52.575001
1782298957020,0.361316,0.497707,10.811872,0.09227,-0.138278,0.142345,-3.39375,-17.4375,-52.575001
1782298957021,0.363709,0.392423,11.07269,0.09227,-0.138278,0.142345,-3.39375,-17.4375,-52.575001
1782298957029,0.363709,0.392423,11.07269,0.119759,-0.105902,0.160671,-3.39375,-17.4375,-52.575001
1782298957030,0.358923,0.291924,11.218652,0.119759,-0.105902,0.160671,-2.86875,-18.31875,-53.812504
1782298957039,0.323031,0.308674,11.225831,0.145415,-0.071082,0.175943,-2.86875,-18.31875,-53.812504
1782298957040,0.323031,0.308674,11.225831,0.145415,-0.071082,0.175943,-3.7125,-17.306252,-52.275002
1782298957058,0.157926,0.540778,11.036798,0.191841,-0.034431,0.189382,-4.74375,-17.868752,-52.275002
1782298957059,0.157926,0.540778,11.036798,0.191841,-0.034431,0.189382,-4.89375,-18.168751,-52.143753
1782298957063,0.157926,0.540778,11.036798,0.204058,-0.023435,0.185106,-4.89375,-18.168751,-52.143753
1782298957064,0.095713,0.655633,11.010477,0.204058,-0.023435,0.185106,-4.89375,-18.168751,-52.143753
1782298957069,0.095713,0.655633,11.010477,0.204058,-0.023435,0.185106,-3.09375,-17.00625,-52.875004
1782298957072,0.071785,0.725025,11.032012,0.209556,-0.025268,0.177776,-3.09375,-17.00625,-52.875004
1782298957078,0.071785,0.725025,11.032012,0.209556,-0.025268,0.177776,-3.675,-17.887501,-52.743752
1782298957080,0.09332,0.677169,11.16601,0.202837,-0.035041,0.171667,-3.675,-17.887501,-52.743752
1782298957089,0.09332,0.677169,11.16601,0.186343,-0.038096,0.170445,-4.575,-17.418751,-53.193752
1782298957090,0.062213,0.59342,11.41247,0.186343,-0.038096,0.170445,-4.575,-17.418751,-53.193752
1782298957099,-0.064606,0.569492,11.606289,0.169239,-0.022213,0.178386,-4.65,-18.1875,-50.306252
1782298957106,-0.064606,0.569492,11.606289,0.157022,0.008941,0.199767,-4.65,-18.1875,-50.306252
1782298957107,-0.22014,0.545564,11.61586,0.157022,0.008941,0.199767,-4.65,-18.1875,-50.306252
1782298957108,-0.22014,0.545564,11.61586,0.157022,0.008941,0.199767,-4.425,-18.31875,-52.293751
1782298957115,-0.315853,0.461815,11.436399,0.139918,0.032765,0.229699,-4.425,-18.31875,-52.293751
1782298957119,-0.315853,0.461815,11.436399,0.139918,0.032765,0.229699,-5.30625,-19.481251,-52.143753
1782298957124,-0.425922,0.363709,11.244973,0.101433,0.032154,0.260853,-5.30625,-19.481251,-52.143753
1782298957129,-0.425922,0.363709,11.244973,0.101433,0.032154,0.260853,-3.1875,-19.368752,-52.293751
1782298957132,-0.468993,0.189033,11.221045,0.031794,0.009552,0.286509,-3.1875,-19.368752,-52.293751
1782298957139,-0.468993,0.189033,11.221045,0.031794,0.009552,0.286509,-3.3,-19.5,-53.212502
1782298957141,-0.473779,-0.100499,11.378972,-0.058614,-0.016715,0.296894,-3.3,-19.5,-53.212502
1782298957155,-0.454636,-0.409173,11.66611,-0.152687,-0.046037,0.288953,-3.20625,-18.618752,-52.743752
1782298957159,-0.382852,-0.631705,11.876678,-0.241873,-0.083911,0.266962,-2.775,-17.75625,-52.593754
1782298957166,-0.306281,-0.782453,11.910178,-0.313344,-0.116286,0.234586,-2.775,-17.75625,-52.593754
1782298957168,-0.306281,-0.782453,11.910178,-0.313344,-0.116286,0.234586,-4.89375,-17.71875,-52.593754
1782298957175,-0.222533,-0.892523,11.74268,-0.353661,-0.141332,0.193658,-4.89375,-17.71875,-52.593754
1782298957179,-0.222533,-0.892523,11.74268,-0.353661,-0.141332,0.193658,-4.59375,-16.987501,-53.193752
1782298957183,-0.153141,-1.004985,11.455541,-0.355494,-0.16088,0.147843,-4.59375,-16.987501,-53.193752
1782298957189,-0.153141,-1.004985,11.455541,-0.355494,-0.16088,0.147843,-4.10625,-17.71875,-53.643753
1782298957196,-0.11007,-1.079163,11.197116,-0.316398,-0.169432,0.103861,-4.10625,-17.71875,-53.643753
1782298957199,-0.11007,-1.079163,11.197116,-0.316398,-0.169432,0.103861,-4.10625,-18.168751,-52.893753
1782298957201,-0.07657,-1.100698,10.902799,-0.238819,-0.164545,0.067209,-4.10625,-18.168751,-52.893753
1782298957210,-0.07657,-1.100698,10.902799,-0.130696,-0.134612,0.04644,-4.10625,-18.168751,-52.893753
1782298957211,-0.040678,-1.028914,10.553447,-0.130696,-0.134612,0.04644,-4.81875,-18.450001,-54.412502
1782298957220,0.009571,-0.823131,10.216059,3e-05,-0.082689,0.040331,-5.85,-16.837502,-51.975002
1782298957227,0.055035,-0.533599,9.92892,0.133809,-0.011218,0.047661,-5.85,-16.837502,-51.975002
1782298957229,0.055035,-0.533599,9.92892,0.133809,-0.011218,0.047661,-5.7,-16.6875,-51.825001
1782298957235,0.052642,-0.241675,9.656139,0.246208,0.070027,0.063544,-5.7,-16.6875,-51.825001
1782298957240,0.052642,-0.241675,9.656139,0.246208,0.070027,0.063544,-5.325,-18.150002,-52.593754
1782298957244,-0.014357,0.040678,9.388143,0.307294,0.131725,0.084924,-5.325,-18.150002,-52.593754
1782298957249,-0.014357,0.040678,9.388143,0.307294,0.131725,0.084924,-6.20625,-19.331251,-52.762501
