ts,ax,ay,az,gx,gy,gz,mx,my,mz
1782300447782,0.071785,1.026521,10.038991,0.067072,0.07919,-0.040609,-0.16875,10.3125,-53.643753
1782300447801,-0.059821,1.167697,9.395321,0.0799,0.095684,-0.022894,-1.5375,10.33125,-53.643753
1782300447805,-0.081356,1.189233,9.38575,0.022479,0.039484,-0.0064,-1.5375,10.33125,-53.643753
1782300447808,-0.081356,1.189233,9.38575,0.022479,0.039484,-0.0064,-1.10625,10.762501,-53.475002
1782300447814,-0.052642,1.162912,9.603497,-0.030056,-0.003887,0.005817,-1.10625,10.762501,-53.475002
1782300447819,-0.052642,1.162912,9.603497,-0.030056,-0.003887,0.005817,-2.1375,8.700001,-51.993752
1782300447823,-0.038285,1.124627,9.782959,-0.057545,-0.022213,0.013758,-2.1375,8.700001,-51.993752
1782300447828,-0.038285,1.124627,9.782959,-0.057545,-0.022213,0.013758,-1.96875,8.55,-52.443752
1782300447831,-0.011964,1.131805,9.842779,-0.053268,-0.010607,0.0217,-1.96875,8.55,-52.443752
1782300447839,-0.011964,1.131805,9.842779,-0.053268,-0.010607,0.0217,-0.3,7.2,-51.543751
1782300447840,0.021535,1.167697,9.77578,-0.033721,0.017493,0.027808,-0.3,7.2,-51.543751
1782300447850,0.047856,1.134198,9.651353,-0.01173,0.030932,0.033917,-0.6,9.731251,-54.093754
1782300447857,0.043071,1.131805,9.574783,0.004153,0.031543,0.041858,-0.6,9.731251,-54.093754
1782300447859,0.043071,1.131805,9.574783,0.004153,0.031543,0.041858,-0.95625,9.8625,-52.425003
1782300447867,0.062213,1.184447,9.565212,0.009651,0.015049,0.049799,-0.95625,9.8625,-52.425003
1782300447869,0.062213,1.184447,9.565212,0.009651,0.015049,0.049799,-0.95625,9.8625,-52.425003
1782300447875,0.083749,1.225125,9.579568,0.010261,0.004665,0.055297,-0.95625,9.8625,-52.425003
1782300447879,0.083749,1.225125,9.579568,0.010261,0.004665,0.055297,-1.2,9.150001,-53.643753
1782300447884,0.09332,1.275374,9.531712,0.009651,-0.013661,0.059573,-1.2,9.150001,-53.643753
1782300447889,0.09332,1.275374,9.531712,0.009651,-0.013661,0.059573,-2.6625,10.462501,-51.506252
1782300447892,0.124427,1.328017,9.435999,0.004153,-0.029544,0.06446,-2.6625,10.462501,-51.506252
1782300447899,0.124427,1.328017,9.435999,0.004153,-0.029544,0.06446,-1.18125,9.150001,-53.943752
1782300447900,0.124427,1.351945,9.333107,-0.007454,-0.051535,0.066293,-1.18125,9.150001,-53.943752
1782300447910,0.155533,1.366302,9.273287,-0.02639,-0.07658,0.067514,0.20625,8.25,-53.812504
1782300447918,0.212961,1.399801,9.223038,-0.050825,-0.100404,0.069347,-1.425,10.762501,-52.725002
1782300447927,0.267996,1.409373,9.254144,-0.076481,-0.113843,0.069347,-1.425,10.762501,-52.725002
1782300447928,0.267996,1.409373,9.254144,-0.076481,-0.113843,0.069347,-0.525,10.3125,-52.425003
1782300447934,0.315853,1.418944,9.349858,-0.09664,-0.113843,0.066293,-0.525,10.3125,-52.425003
1782300447939,0.315853,1.418944,9.349858,-0.09664,-0.113843,0.066293,-1.2,8.85,-53.193752
1782300447943,0.339781,1.428515,9.471892,-0.110079,-0.107123,0.062628,-1.2,8.85,-53.193752
1782300447948,0.339781,1.428515,9.471892,-0.110079,-0.107123,0.062628,-2.775,10.33125,-52.425003
1782300447951,0.339781,1.426122,9.593925,-0.111911,-0.087576,0.057741,-2.775,10.33125,-52.425003
1782300447959,0.339781,1.426122,9.593925,-0.111911,-0.087576,0.057741,-1.18125,8.85,-53.643753
1782300447960,0.342174,1.430908,9.648961,-0.104581,-0.075969,0.054686,-1.18125,8.85,-53.643753
1782300447970,0.361316,1.395016,9.732709,-0.087477,-0.063141,0.049188,-2.04375,9.13125,-51.075001
1782300447977,0.361316,1.363909,9.888242,-0.063653,-0.032598,0.046134,-2.04375,9.13125,-51.075001
1782300447978,0.361316,1.363909,9.888242,-0.063653,-0.032598,0.046134,-0.13125,9.13125,-53.643753
1782300447986,0.320638,1.385444,9.960027,-0.033721,0.010163,0.046745,-0.13125,9.13125,-53.643753
1782300447988,0.320638,1.385444,9.960027,-0.033721,0.010163,0.046745,-1.33125,9.0,-53.793751
1782300447994,0.315853,1.411765,9.96242,-0.007454,0.021158,0.049188,-1.33125,9.0,-53.793751
1782300448000,0.315853,1.411765,9.96242,-0.007454,0.021158,0.049188,-1.575,10.3125,-52.425003
1782300448003,0.287139,1.414158,9.881064,0.012705,0.024823,0.049799,-1.575,10.3125,-52.425003
1782300448008,0.287139,1.414158,9.881064,0.012705,0.024823,0.049799,-2.04375,10.6125,-52.425003
1782300448012,0.232104,1.397408,9.854744,0.018814,0.027267,0.05041,-2.04375,10.6125,-52.425003
1782300448018,0.232104,1.397408,9.854744,0.018814,0.027267,0.05041,-2.325,9.58125,-52.125004
1782300448020,0.224925,1.349552,9.814065,-0.001345,0.016882,0.054686,-2.325,9.58125,-52.125004
1782300448030,0.224925,1.332802,9.804493,-0.036775,0.016882,0.061406,-1.5375,10.6125,-53.643753
1782300448037,0.18664,1.311267,9.890635,-0.081979,-0.00572,0.070569,-1.5375,10.6125,-53.643753
1782300448038,0.18664,1.311267,9.890635,-0.081979,-0.00572,0.070569,-1.51875,9.58125,-53.193752
1782300448046,0.131605,1.289731,10.053347,-0.113133,-0.01977,0.079732,-1.51875,9.58125,-53.193752
1782300448048,0.131605,1.289731,10.053347,-0.113133,-0.01977,0.079732,-0.9,8.83125,-52.893753
1782300448054,0.112463,1.272982,10.170596,-0.121685,-0.027711,0.091949,-0.9,8.83125,-52.893753
1782300448059,0.112463,1.272982,10.170596,-0.121685,-0.027711,0.091949,-2.1375,10.03125,-53.493752
1782300448063,0.12682,1.268196,10.184952,-0.099083,-0.006942,0.107832,-2.1375,10.03125,-53.493752
1782300448068,0.12682,1.268196,10.184952,-0.099083,-0.006942,0.107832,-1.275,9.8625,-52.125004
1782300448071,0.145962,1.299303,10.096418,-0.053268,0.028489,0.121881,-1.275,9.8625,-52.125004
1782300448078,0.145962,1.299303,10.096418,-0.053268,0.028489,0.121881,-2.775,9.88125,-52.425003
1782300448080,0.143569,1.395016,9.950456,-0.000123,0.060253,0.135931,-2.775,9.88125,-52.425003
1782300448090,0.064606,1.426122,9.806887,0.043248,0.082245,0.149981,0.7875,9.712501,-54.562504
1782300448097,-0.002393,1.442872,9.663317,0.068294,0.092629,0.164031,0.7875,9.712501,-54.562504
1782300448098,-0.002393,1.442872,9.663317,0.068294,0.092629,0.164031,-0.225,10.293751,-52.125004
1782300448106,-0.023928,1.402194,9.531712,0.063407,0.07919,0.180524,-0.225,10.293751,-52.125004
1782300448108,-0.023928,1.402194,9.531712,0.063407,0.07919,0.180524,-0.9375,10.9125,-53.943752
1782300448115,-0.043071,1.342373,9.543676,0.031031,0.047425,0.195185,-0.9375,10.9125,-53.943752
1782300448119,-0.043071,1.342373,9.543676,0.031031,0.047425,0.195185,-0.4875,10.3125,-53.175003
1782300448123,-0.086142,1.320838,9.646568,-0.00501,0.013828,0.204348,-0.4875,10.3125,-53.175003
1782300448128,-0.086142,1.320838,9.646568,-0.00501,0.013828,0.204348,-2.1375,9.450001,-53.043751
1782300448131,-0.124427,1.299303,9.761423,-0.031277,-0.026489,0.206792,-2.1375,9.450001,-53.043751
1782300448138,-0.124427,1.299303,9.761423,-0.031277,-0.026489,0.206792,-0.6375,9.4125,-52.275002
1782300448140,-0.157926,1.320838,9.852351,-0.030056,-0.072915,0.19885,-0.6375,9.4125,-52.275002
1782300448149,-0.256032,1.249053,9.871493,-0.003178,-0.103458,0.190909,-2.00625,10.33125,-53.175003
1782300448158,-0.291924,1.332802,9.761423,0.046303,-0.107734,0.187244,-1.3875,11.512501,-54.543751
1782300448167,-0.315853,1.421337,9.565212,0.114109,-0.088798,0.179914,-1.3875,11.512501,-54.543751
1782300448168,-0.315853,1.421337,9.565212,0.114109,-0.088798,0.179914,-2.30625,9.150001,-52.125004
1782300448175,-0.37328,1.521835,9.287644,0.17886,-0.054589,0.178692,-2.30625,9.150001,-52.125004
1782300448180,-0.37328,1.521835,9.287644,0.17886,-0.054589,0.178692,-1.5375,8.85,-52.143753
1782300448184,-0.366102,1.708475,8.981363,0.225897,-0.012439,0.186633,-1.5375,8.85,-52.143753
1782300448189,-0.366102,1.708475,8.981363,0.225897,-0.012439,0.186633,-0.9375,9.58125,-52.893753
1782300448192,-0.339781,1.931008,8.763616,0.237503,0.018104,0.190909,-0.9375,9.58125,-52.893753
1782300448199,-0.339781,1.931008,8.763616,0.237503,0.018104,0.190909,-0.46875,9.8625,-53.643753
1782300448202,-0.334995,2.086541,8.636797,0.205738,0.02238,0.19824,-0.46875,9.8625,-53.643753
1782300448210,-0.256032,2.184647,8.617653,0.12938,-0.00572,0.208013,-0.46875,9.8625,-53.643753
1782300448211,-0.256032,2.184647,8.617653,0.12938,-0.00572,0.208013,-2.26875,9.6,-53.643753
1782300448219,-0.217747,2.196611,8.780365,0.02309,-0.046648,0.212289,-2.26875,9.6,-53.643753
1782300448220,-0.217747,2.196611,8.780365,0.02309,-0.046648,0.212289,0.7125,9.69375,-52.725002
1782300448226,-0.227318,2.09372,9.084254,-0.086255,-0.087576,0.213511,0.7125,9.69375,-52.725002
1782300448228,-0.227318,2.09372,9.084254,-0.086255,-0.087576,0.213511,-1.21875,7.8,-51.843754
1782300448240,-0.196211,1.945365,9.459927,-0.187659,-0.104069,0.214122,-1.8375,9.431251,-52.743752
1782300448243,-0.148355,1.770689,9.823637,-0.275623,-0.099793,0.213511,-1.8375,9.431251,-52.743752
1782300448249,-0.148355,1.770689,9.823637,-0.275623,-0.099793,0.213511,-0.9375,10.3125,-53.175003
1782300448252,-0.141177,1.584049,10.213666,-0.350149,-0.091852,0.214733,-0.9375,10.3125,-53.175003
1782300448260,-0.141177,1.584049,10.213666,-0.350149,-0.091852,0.214733,-3.50625,9.6,-52.893753
1782300448261,-0.112463,1.397408,10.570198,-0.416122,-0.06253,0.220842,-3.50625,9.6,-52.893753
1782300448269,-0.112463,1.397408,10.570198,-0.416122,-0.06253,0.220842,-1.575,9.8625,-51.825001
1782300448270,-0.07657,1.222732,10.874086,-0.462548,-0.035041,0.230615,-1.575,9.8625,-51.825001
1782300448280,-0.031107,1.095913,11.177974,-0.474154,-0.003276,0.241611,-3.225,8.700001,-51.225002
1782300448286,-0.031107,1.095913,11.177974,-0.441778,0.043149,0.250774,-3.225,8.700001,-51.225002
1782300448287,-0.040678,0.988236,11.395721,-0.441778,0.043149,0.250774,-3.225,8.700001,-51.225002
1782300448289,-0.040678,0.988236,11.395721,-0.441778,0.043149,0.250774,-2.025,10.9125,-52.875004
1782300448296,-0.095713,0.904487,11.398114,-0.364199,0.096295,0.253828,-2.025,10.9125,-52.875004
1782300448301,-0.095713,0.904487,11.398114,-0.364199,0.096295,0.253828,-1.125,10.462501,-52.275002
1782300448304,-0.20339,0.849452,11.278472,-0.251189,0.138444,0.260548,-1.125,10.462501,-52.275002
1782300448309,-0.20339,0.849452,11.278472,-0.251189,0.138444,0.260548,0.01875,12.50625,-52.256252
1782300448312,-0.272782,0.926022,10.998513,-0.116798,0.168987,0.264213,0.01875,12.50625,-52.256252
1782300448319,-0.272782,0.926022,10.998513,-0.116798,0.168987,0.264213,-1.10625,11.94375,-54.525002
1782300448320,-0.272782,0.926022,10.998513,0.013927,0.18487,0.258715,-1.10625,11.94375,-54.525002
1782300448321,-0.344566,1.086342,10.563018,0.013927,0.18487,0.258715,-1.10625,11.94375,-54.525002
1782300448330,-0.344566,1.086342,10.563018,0.125715,0.184259,0.245276,-1.10625,11.94375,-54.525002
1782300448331,-0.418744,1.282553,10.031812,0.125715,0.184259,0.245276,-1.10625,11.94375,-54.525002
1782300448347,-0.449851,1.734796,8.933507,0.252775,0.167155,0.199461,-1.6125,12.093751,-52.856251
1782300448349,-0.449851,1.734796,8.933507,0.252775,0.167155,0.199461,-0.35625,9.712501,-52.275002
1782300448355,-0.497707,1.923829,8.361621,0.247888,0.134168,0.168307,-0.35625,9.712501,-52.275002
1782300448360,-0.497707,1.923829,8.361621,0.247888,0.134168,0.168307,-1.8375,10.78125,-53.793751
1782300448364,-0.51685,2.065006,7.914164,0.186191,0.077969,0.136542,-1.8375,10.78125,-53.793751
1782300448369,-0.51685,2.065006,7.914164,0.186191,0.077969,0.136542,-1.575,10.9125,-52.875004
1782300448373,-0.468993,2.151148,7.768202,0.084787,0.010773,0.108442,-1.575,10.9125,-52.875004
1782300448379,-0.468993,2.151148,7.768202,0.084787,0.010773,0.108442,-0.24375,10.89375,-51.806252
1782300448381,-0.351745,2.199004,7.952449,-0.023947,-0.028933,0.082175,-0.24375,10.89375,-51.806252
1782300448390,-0.282353,2.184647,8.263516,-0.114355,-0.04115,0.058962,-1.2375,10.6125,-53.643753
1782300448399,-0.191426,2.179862,8.550655,-0.172387,-0.035652,0.041858,-0.375,9.4125,-51.525002
1782300448406,-0.148355,2.177469,8.718153,-0.196211,-0.028933,0.030252,-0.375,9.4125,-51.525002
1782300448408,-0.148355,2.177469,8.718153,-0.196211,-0.028933,0.030252,-2.34375,10.6125,-52.125004
1782300448415,-0.07657,2.165504,8.864114,-0.187659,-0.022824,0.0217,-2.34375,10.6125,-52.125004
1782300448419,-0.07657,2.165504,8.864114,-0.187659,-0.022824,0.0217,-0.91875,10.3125,-53.943752
1782300448423,0.01675,2.146362,9.026826,-0.160781,-0.011218,0.014369,-0.91875,10.3125,-53.943752
1782300448429,0.01675,2.146362,9.026826,-0.160781,-0.011218,0.014369,-1.65,11.34375,-51.356251
1782300448432,0.052642,2.112862,9.213467,-0.116798,0.001,0.010093,-1.65,11.34375,-51.356251
1782300448438,0.052642,2.112862,9.213467,-0.116798,0.001,0.010093,0.09375,11.493751,-53.775002
1782300448441,0.059821,2.067399,9.359429,-0.073427,0.029099,0.008871,0.09375,11.493751,-53.775002
1782300448450,0.062213,2.067399,9.340287,-0.043495,0.055367,0.013758,0.24375,10.59375,-52.875004
1782300448459,0.07657,2.065006,9.323536,-0.038608,0.077358,0.018645,0.20625,12.375001,-53.625004
1782300448466,0.040678,2.050649,9.376178,-0.06854,0.059032,0.025365,0.20625,12.375001,-53.625004
1782300448468,0.040678,2.050649,9.376178,-0.06854,0.059032,0.025365,-0.1875,9.8625,-52.875004
1782300448475,0.021535,1.988436,9.47907,-0.119853,0.035819,0.036971,-0.1875,9.8625,-52.875004
1782300448479,0.021535,1.988436,9.47907,-0.119853,0.035819,0.036971,0.05625,11.175,-52.256252
1782300448483,0.021535,1.988436,9.47907,-0.173609,0.018715,0.052854,0.05625,11.175,-52.256252
1782300448484,0.0335,1.942972,9.627425,-0.173609,0.018715,0.052854,0.05625,11.175,-52.256252
1782300448489,0.0335,1.942972,9.627425,-0.173609,0.018715,0.052854,-0.20625,9.8625,-52.125004
1782300448492,0.011964,1.919044,9.833208,-0.215758,0.00161,0.065071,-0.20625,9.8625,-52.125004
1782300448499,0.011964,1.919044,9.833208,-0.215758,0.00161,0.065071,-0.43125,12.225,-52.256252
1782300448501,-0.002393,1.859223,10.034205,-0.225532,-0.00572,0.076677,-0.43125,12.225,-52.256252
1782300448512,-0.047856,1.818545,10.172988,-0.206596,0.002221,0.084619,0.61875,10.425,-50.456253
1782300448520,-0.090927,1.816152,10.163417,-0.15345,0.021769,0.090727,0.075,11.475,-53.025002
1782300448527,-0.133998,1.840081,10.074883,-0.081368,0.051701,0.093782,0.075,11.475,-53.025002
1782300448529,-0.133998,1.840081,10.074883,-0.081368,0.051701,0.093782,-0.675,11.19375,-53.025002
1782300448535,-0.133998,1.840081,10.074883,0.001709,0.080412,0.091949,-0.675,11.19375,-53.025002
1782300448536,-0.174676,1.89033,9.931313,0.001709,0.080412,0.091949,-0.675,11.19375,-53.025002
1782300448540,-0.174676,1.89033,9.931313,0.001709,0.080412,0.091949,0.45,12.7875,-52.087502
1782300448555,-0.174676,1.89033,9.931313,0.082954,0.115231,0.084008,0.45,12.7875,-52.087502
1782300448556,-0.251246,2.005185,9.474285,0.14343,0.134168,0.073012,-0.5625,12.375001,-52.856251
1782300448559,-0.251246,2.005185,9.474285,0.14343,0.134168,0.073012,0.1875,12.056251,-52.406254
1782300448561,-0.303888,2.041078,9.213467,0.174584,0.131114,0.058962,0.1875,12.056251,-52.406254
1782300448570,-0.325424,2.103291,9.036397,0.175195,0.108512,0.044912,0.16875,12.356251,-52.106251
1782300448579,-0.325424,2.103291,9.036397,0.148317,0.068195,0.030252,0.16875,12.356251,-52.106251
1782300448580,-0.318245,2.163112,9.01247,0.148317,0.068195,0.030252,-0.225,12.075001,-53.625004
1782300448586,-0.318245,2.163112,9.01247,0.110443,0.02971,0.013147,-0.225,12.075001,-53.625004
1782300448587,-0.272782,2.177469,9.108182,0.110443,0.02971,0.013147,-0.225,12.075001,-53.625004
1782300448588,-0.272782,2.177469,9.108182,0.110443,0.02971,0.013147,1.275,11.325001,-52.875004
1782300448595,-0.272782,2.177469,9.108182,0.071959,0.003443,-0.004568,1.275,11.325001,-52.875004
1782300448596,-0.241675,2.182254,9.230217,0.071959,0.003443,-0.004568,1.275,11.325001,-52.875004
1782300448599,-0.241675,2.182254,9.230217,0.071959,0.003443,-0.004568,0.975,10.275001,-51.825001
1782300448604,-0.241675,2.182254,9.230217,0.053633,-0.016715,-0.018617,0.975,10.275001,-51.825001
1782300448605,-0.229711,2.163112,9.333107,0.053633,-0.016715,-0.018617,0.975,10.275001,-51.825001
1782300448610,-0.229711,2.163112,9.333107,0.053633,-0.016715,-0.018617,0.43125,9.712501,-53.043751
1782300448613,-0.193819,2.165504,9.428821,0.050579,-0.037485,-0.032667,0.43125,9.712501,-53.043751
1782300448619,-0.193819,2.165504,9.428821,0.050579,-0.037485,-0.032667,0.5625,10.89375,-53.625004
1782300448621,-0.193819,2.165504,9.428821,0.066461,-0.0552,-0.045496,0.5625,10.89375,-53.625004
1782300448622,-0.157926,2.179862,9.502998,0.066461,-0.0552,-0.045496,0.5625,10.89375,-53.625004
1782300448629,-0.157926,2.179862,9.502998,0.066461,-0.0552,-0.045496,-0.43125,9.88125,-54.712502
1782300448631,-0.11007,2.182254,9.558033,0.095172,-0.070472,-0.055269,-0.43125,9.88125,-54.712502
1782300448640,-0.098106,2.163112,9.603497,0.133045,-0.077191,-0.061378,0.73125,9.993751,-53.493752
1782300448647,-0.066999,2.17029,9.601104,0.172752,-0.068028,-0.065043,0.73125,9.993751,-53.493752
1782300448648,-0.066999,2.17029,9.601104,0.172752,-0.068028,-0.065043,1.14375,12.20625,-54.075001
1782300448655,-0.062213,2.163112,9.598712,0.208793,-0.04787,-0.06993,1.14375,12.20625,-54.075001
1782300448658,-0.062213,2.163112,9.598712,0.208793,-0.04787,-0.06993,0.7125,11.925,-54.843754
1782300448664,-0.114855,2.151148,9.636997,0.237503,-0.038096,-0.074206,0.7125,11.925,-54.843754
1782300448669,-0.114855,2.151148,9.636997,0.237503,-0.038096,-0.074206,-0.1875,10.89375,-53.625004
1782300448672,-0.119641,2.134398,9.747066,0.257662,-0.037485,-0.077261,-0.1875,10.89375,-53.625004
1782300448678,-0.119641,2.134398,9.747066,0.257662,-0.037485,-0.077261,-0.65625,10.743751,-53.025002
1782300448681,-0.136391,2.096113,9.945671,0.264992,-0.042983,-0.082758,-0.65625,10.743751,-53.025002
1782300448688,-0.136391,2.096113,9.945671,0.264992,-0.042983,-0.082758,-0.91875,10.3125,-53.943752
1782300448690,-0.157926,2.055435,10.18256,0.266214,-0.052757,-0.0907,-0.91875,10.3125,-53.943752
1782300448700,-0.157926,2.055435,10.18256,0.27049,-0.067417,-0.098641,-0.91875,10.3125,-53.943752
1782300448701,-0.200997,1.990828,10.488842,0.27049,-0.067417,-0.098641,-1.2375,10.33125,-53.643753
1782300448708,-0.148355,1.914258,10.81905,0.286372,-0.094295,-0.112691,-1.2375,10.33125,-53.643753
1782300448709,-0.148355,1.914258,10.81905,0.286372,-0.094295,-0.112691,-0.16875,10.6125,-53.943752
1782300448715,-0.122034,1.744368,11.192331,0.31325,-0.103458,-0.123075,-0.16875,10.6125,-53.943752
1782300448718,-0.122034,1.744368,11.192331,0.31325,-0.103458,-0.123075,-0.28125,8.981251,-53.793751
1782300448724,-0.122034,1.744368,11.192331,0.343794,-0.087576,-0.121854,-0.28125,8.981251,-53.793751
1782300448725,-0.050249,1.765903,11.477077,0.343794,-0.087576,-0.121854,-0.28125,8.981251,-53.793751
1782300448730,-0.050249,1.765903,11.477077,0.343794,-0.087576,-0.121854,-0.6,9.431251,-53.493752
1782300448733,-0.071785,1.837688,11.625432,0.380446,-0.051535,-0.124297,-0.6,9.431251,-53.493752
1782300448739,-0.071785,1.837688,11.625432,0.380446,-0.051535,-0.124297,-0.16875,10.6125,-53.943752
1782300448741,-0.071785,1.895115,11.541683,0.425039,-0.01305,-0.123686,-0.16875,10.6125,-53.943752
1782300448749,-0.071785,1.895115,11.541683,0.425039,-0.01305,-0.123686,0.75,9.712501,-53.493752
1782300448758,-0.043071,2.074577,11.362221,0.469632,0.020547,-0.111469,0.75,9.712501,-53.493752
1782300448759,-0.043071,2.074577,11.362221,0.495288,0.046814,-0.089478,0.75,9.712501,-53.493752
1782300448760,-0.069392,2.160719,11.041584,0.495288,0.046814,-0.089478,-1.0125,7.96875,-53.512501
1782300448767,-0.117248,2.124826,10.656339,0.493456,0.049258,-0.065043,-1.0125,7.96875,-53.512501
1782300448769,-0.117248,2.124826,10.656339,0.493456,0.049258,-0.065043,-1.05,10.03125,-54.093754
1782300448776,-0.114855,2.096113,10.4027,0.451917,0.035819,-0.046106,-1.05,10.03125,-54.093754
1782300448779,-0.114855,2.096113,10.4027,0.451917,0.035819,-0.046106,-1.06875,10.03125,-53.493752
1782300448797,-0.157926,2.275574,10.373986,0.311418,0.039484,-0.013731,-1.14375,8.868751,-55.012501
1782300448800,-0.157926,2.275574,10.373986,0.311418,0.039484,-0.013731,-1.14375,8.868751,-55.012501
1782300448802,-0.165105,2.352145,10.450556,0.261938,0.075525,-0.008233,-1.14375,8.868751,-55.012501
1782300448809,-0.165105,2.352145,10.450556,0.261938,0.075525,-0.008233,-0.1125,8.83125,-53.962502
1782300448810,-0.150748,2.371287,10.445771,0.236281,0.128059,-0.012509,-0.1125,8.83125,-53.962502
1782300448820,-0.150748,2.371287,10.445771,0.221621,0.179372,-0.028391,-1.3125,9.450001,-54.862503
1782300448821,-0.114855,2.402394,10.326129,0.221621,0.179372,-0.028391,-1.3125,9.450001,-54.862503
1782300448827,-0.01675,2.213361,10.419449,0.18558,0.221522,-0.050993,-1.3125,9.450001,-54.862503
1782300448829,-0.01675,2.213361,10.419449,0.18558,0.221522,-0.050993,-1.3125,9.450001,-54.862503
1782300448836,0.007178,2.079363,10.503198,0.106778,0.249622,-0.06993,-1.3125,9.450001,-54.862503
1782300448839,0.007178,2.079363,10.503198,0.106778,0.249622,-0.06993,-0.525,7.96875,-54.562504
1782300448845,-0.09332,1.990828,10.560626,-0.004399,0.224576,-0.088867,-0.525,7.96875,-54.562504
1782300448865,0.026321,1.622334,11.060726,-0.281732,0.119507,-0.12613,-0.16875,9.5625,-52.893753
1782300448869,0.026321,1.622334,11.060726,-0.281732,0.119507,-0.12613,1.5375,9.4125,-54.562504
1782300448870,0.136391,1.402194,11.467506,-0.399018,0.099349,-0.142012,1.5375,9.4125,-54.562504
1782300448879,0.136391,1.402194,11.467506,-0.468657,0.091408,-0.153619,1.5375,9.4125,-54.562504
1782300448880,0.217747,1.179662,11.773787,-0.468657,0.091408,-0.153619,-0.075,8.85,-55.012501
1782300448887,0.234497,0.918844,11.96282,-0.483928,0.083466,-0.159727,-0.075,8.85,-55.012501
1782300448889,0.234497,0.918844,11.96282,-0.483928,0.083466,-0.159727,-0.43125,9.58125,-54.412502
1782300448896,0.22014,0.679562,12.120746,-0.444833,0.076747,-0.160949,-0.43125,9.58125,-54.412502
1782300448899,0.22014,0.679562,12.120746,-0.444833,0.076747,-0.160949,0.6,10.293751,-53.943752
1782300448905,0.165105,0.512064,12.199709,-0.346484,0.087132,-0.159727,0.6,10.293751,-53.943752
1782300448909,0.165105,0.512064,12.199709,-0.346484,0.087132,-0.159727,0.4125,11.925,-54.843754
1782300448913,0.119641,0.440279,12.084854,-0.193156,0.106679,-0.159727,0.4125,11.925,-54.843754
1782300448918,0.119641,0.440279,12.084854,-0.193156,0.106679,-0.159727,0.6,10.89375,-54.993752
1782300448921,0.059821,0.502493,11.532112,-0.030056,0.111566,-0.160338,0.6,10.89375,-54.993752
1782300448928,0.059821,0.502493,11.532112,-0.030056,0.111566,-0.160338,0.61875,9.13125,-53.943752
1782300448930,-0.021535,0.622134,10.883657,0.098226,0.095073,-0.159116,0.61875,9.13125,-53.943752
1782300448939,-0.021535,0.622134,10.883657,0.180082,0.076747,-0.155451,0.61875,9.13125,-53.943752
1782300448940,-0.045464,0.68674,10.321344,0.180082,0.076747,-0.155451,0.76875,12.243751,-56.343754
1782300448947,-0.043071,0.753739,9.756637,0.218566,0.05781,-0.144456,0.76875,12.243751,-56.343754
1782300448948,-0.043071,0.753739,9.756637,0.218566,0.05781,-0.144456,0.7875,9.712501,-54.562504
1782300448956,-0.100499,0.954736,9.134504,0.22834,0.043149,-0.129795,0.7875,9.712501,-54.562504
1782300448958,-0.100499,0.954736,9.134504,0.22834,0.043149,-0.129795,0.28125,11.34375,-54.993752
1782300448964,-0.155533,1.071985,8.58894,0.216123,0.021769,-0.121854,0.28125,11.34375,-54.993752
1782300448969,-0.155533,1.071985,8.58894,0.216123,0.021769,-0.121854,2.00625,11.606251,-52.406254
1782300448973,-0.105284,1.205983,8.18216,0.17153,-0.032598,-0.113912,2.00625,11.606251,-52.406254
1782300448978,-0.105284,1.205983,8.18216,0.17153,-0.032598,-0.113912,0.43125,10.462501,-54.093754
1782300448981,0.014357,1.304088,8.062519,0.108611,-0.075969,-0.112691,0.43125,10.462501,-54.093754
1782300448988,0.014357,1.304088,8.062519,0.108611,-0.075969,-0.112691,0.6,10.59375,-54.393753
1782300448990,0.12682,1.39023,8.206089,0.031642,-0.124228,-0.115745,0.6,10.59375,-54.393753
1782300448999,0.287139,1.438086,8.378372,-0.036775,-0.137667,-0.11941,1.78125,10.575001,-53.943752
1782300449007,0.413958,1.308874,8.507584,-0.092364,-0.134002,-0.123075,1.78125,10.575001,-53.943752
1782300449008,0.413958,1.308874,8.507584,-0.092364,-0.134002,-0.123075,0.80625,8.681251,-54.112503
1782300449016,0.507278,1.239482,8.58894,-0.128405,-0.115065,-0.120021,0.80625,8.681251,-54.112503
1782300449018,0.507278,1.239482,8.58894,-0.128405,-0.115065,-0.120021,-0.15,9.8625,-53.943752
1782300449024,0.650848,1.177269,8.718153,-0.148563,-0.094906,-0.120021,-0.15,9.8625,-53.943752
1782300449029,0.650848,1.177269,8.718153,-0.148563,-0.094906,-0.120021,0.58125,10.89375,-54.393753
1782300449033,0.708275,1.083949,8.823436,-0.149785,-0.0552,-0.130406,0.58125,10.89375,-54.393753
1782300449038,0.708275,1.083949,8.823436,-0.149785,-0.0552,-0.130406,-0.6375,11.212501,-54.075001
1782300449041,0.72024,0.969093,8.900007,-0.140011,-0.01977,-0.144456,-0.6375,11.212501,-54.075001
1782300449049,0.72024,0.969093,8.900007,-0.140011,-0.01977,-0.144456,-0.88125,10.63125,-55.462502
1782300449052,0.693919,0.878166,8.990934,-0.129016,-0.003276,-0.156062,-0.88125,10.63125,-55.462502
1782300449059,0.629312,0.830309,9.036397,-0.127183,-0.012439,-0.162171,1.81875,10.59375,-54.693752
1782300449067,0.55992,0.844666,9.074683,-0.135735,-0.025878,-0.160949,1.81875,10.59375,-54.693752
1782300449068,0.55992,0.844666,9.074683,-0.135735,-0.025878,-0.160949,1.9125,10.3125,-57.581253
1782300449076,0.473779,0.870987,9.091433,-0.144287,-0.035041,-0.15484,1.9125,10.3125,-57.581253
1782300449078,0.473779,0.870987,9.091433,-0.144287,-0.035041,-0.15484,0.675,10.33125,-56.512501
1782300449084,0.437887,0.904487,9.036397,-0.144898,-0.036874,-0.14018,0.675,10.33125,-56.512501
1782300449089,0.437887,0.904487,9.036397,-0.144898,-0.036874,-0.14018,-0.1875,10.89375,-53.943752
1782300449093,0.382852,0.947558,8.990934,-0.131459,-0.019159,-0.123075,-0.1875,10.89375,-53.943752
1782300449099,0.382852,0.947558,8.990934,-0.131459,-0.019159,-0.123075,1.03125,12.825001,-55.743752
1782300449101,0.311067,0.988236,9.002899,-0.100305,0.006497,-0.110858,1.03125,12.825001,-55.743752
1782300449108,0.311067,0.988236,9.002899,-0.100305,0.006497,-0.110858,-0.61875,11.94375,-55.593754
1782300449110,0.229711,1.038485,9.014863,-0.058766,0.018104,-0.099863,-0.61875,11.94375,-55.593754
1782300449119,0.229711,1.038485,9.014863,-0.022114,0.018104,-0.09131,-0.61875,11.94375,-55.593754
1782300449120,0.174676,1.136591,8.94547,-0.022114,0.018104,-0.09131,0.58125,11.34375,-54.693752
1782300449127,0.114855,1.251446,8.821044,0.006596,-0.009996,-0.083369,0.58125,11.34375,-54.693752
1782300449128,0.114855,1.251446,8.821044,0.006596,-0.009996,-0.083369,0.15,11.94375,-56.043751
1782300449136,0.105284,1.351945,8.660725,0.021868,-0.045426,-0.076039,0.15,11.94375,-56.043751
1782300449138,0.105284,1.351945,8.660725,0.021868,-0.045426,-0.076039,0.675,9.13125,-55.462502
1782300449144,0.143569,1.428515,8.493228,0.024311,-0.078413,-0.068708,0.675,9.13125,-55.462502
1782300449149,0.143569,1.428515,8.493228,0.024311,-0.078413,-0.068708,0.58125,12.075001,-55.443752
1782300449153,0.177069,1.514657,8.387943,0.018203,-0.085743,-0.060767,0.58125,12.075001,-55.443752
1782300449163,0.172283,1.584049,8.354443,0.007818,-0.077802,-0.058324,-0.45,11.3625,-55.443752
1782300449168,0.172283,1.584049,8.354443,0.007818,-0.077802,-0.058324,0.35625,10.6125,-56.512501
1782300449170,0.141177,1.622334,8.313765,-0.005621,-0.06253,-0.058935,0.35625,10.6125,-56.512501
1782300449180,0.136391,1.631905,8.366408,-0.024558,-0.049091,-0.058324,0.28125,11.64375,-54.993752
1782300449187,0.112463,1.67019,8.490835,-0.024558,-0.049091,-0.058324,0.28125,11.64375,-54.993752
1782300449188,0.112463,1.67019,8.490835,-0.050825,-0.038096,-0.057713,0.45,11.493751,-55.293751
1782300449196,0.124427,1.682154,8.629618,-0.076481,-0.03382,-0.052826,0.45,11.493751,-55.293751
1782300449199,0.124427,1.682154,8.629618,-0.076481,-0.03382,-0.052826,-0.13125,10.3125,-54.693752
1782300449204,0.172283,1.679762,8.720545,-0.091753,-0.033209,-0.043052,-0.13125,10.3125,-54.693752
1782300449209,0.172283,1.679762,8.720545,-0.091753,-0.033209,-0.043052,1.03125,12.375001,-55.743752
1782300449213,0.227318,1.624727,8.828222,-0.09664,-0.026489,-0.032667,1.03125,12.375001,-55.743752
1782300449219,0.227318,1.624727,8.828222,-0.09664,-0.026489,-0.032667,0.31875,11.64375,-56.212502
1782300449222,0.232104,1.548156,8.900007,-0.087477,-0.014883,-0.019839,0.31875,11.64375,-56.212502
1782300449228,0.232104,1.548156,8.900007,-0.087477,-0.014883,-0.019839,-1.48125,11.681251,-56.512501
1782300449232,0.224925,1.45005,8.971792,-0.070984,-0.00572,-0.003346,-1.48125,11.681251,-56.512501
1782300449240,0.222533,1.368695,9.081861,-0.045938,0.013217,0.013758,-0.09375,11.3625,-57.262501
1782300449249,0.208176,1.347159,9.196717,-0.022114,0.011384,0.024143,0.58125,12.375001,-55.743752
1782300449256,0.167498,1.349552,9.268502,0.004764,-0.000222,0.030252,0.58125,12.375001,-55.743752
1782300449261,0.167498,1.349552,9.268502,0.004764,-0.000222,0.030252,0.58125,12.375001,-55.743752
1782300449265,0.131605,1.359123,9.273287,0.035307,-0.011218,0.03636,0.58125,12.375001,-55.743752
1782300449269,0.131605,1.359123,9.273287,0.035307,-0.011218,0.03636,-1.21875,11.6625,-55.443752
1782300449273,0.124427,1.416551,9.232609,0.073181,-0.013661,0.041858,-1.21875,11.6625,-55.443752
1782300449280,0.124427,1.416551,9.232609,0.073181,-0.013661,0.041858,0.76875,12.243751,-56.343754
1782300449282,0.119641,1.533799,9.134504,0.115941,-0.018548,0.044912,0.76875,12.243751,-56.343754
1782300449288,0.119641,1.533799,9.134504,0.115941,-0.018548,0.044912,0.1875,11.212501,-56.062504
1782300449290,0.12682,1.665405,8.943078,0.162978,-0.002055,0.045523,0.1875,11.212501,-56.062504
1782300449299,0.136391,1.775474,8.768402,0.201462,0.002832,0.046134,0.1875,11.212501,-56.062504
1782300449300,0.136391,1.775474,8.768402,0.201462,0.002832,0.046134,0.35625,12.1125,-57.562504
1782300449309,0.16989,1.840081,8.660725,0.214901,-0.012439,0.045523,2.30625,10.743751,-56.062504
1782300449316,0.20339,1.87358,8.646368,0.198408,-0.028322,0.046134,2.30625,10.743751,-56.062504
1782300449318,0.20339,1.87358,8.646368,0.198408,-0.028322,0.046134,1.14375,9.58125,-56.531254
1782300449325,0.22014,1.921437,8.751652,0.153815,-0.042372,0.049188,1.14375,9.58125,-56.531254
1782300449329,0.22014,1.921437,8.751652,0.153815,-0.042372,0.049188,0.58125,10.05,-58.200001
1782300449333,0.212961,1.959722,8.955041,0.097615,-0.056422,0.054075,0.58125,10.05,-58.200001
1782300449338,0.212961,1.959722,8.955041,0.097615,-0.056422,0.054075,0.7875,11.19375,-56.062504
1782300449342,0.215354,1.978864,9.196717,0.052411,-0.067417,0.062017,0.7875,11.19375,-56.062504
1782300449348,0.215354,1.978864,9.196717,0.052411,-0.067417,0.062017,-0.24375,12.562501,-58.462502
1782300449350,0.229711,1.957329,9.507783,0.033474,-0.085132,0.069347,-0.24375,12.562501,-58.462502
1782300449359,0.287139,1.885544,9.859529,0.040194,-0.084521,0.075456,-1.14375,12.13125,-58.012501
1782300449369,0.409173,1.820938,10.192132,0.063407,-0.064363,0.083397,-0.58125,11.962501,-56.343754
1782300449376,0.437887,1.773082,10.414664,0.090285,-0.024657,0.090727,-0.58125,11.962501,-56.343754
1782300449378,0.437887,1.773082,10.414664,0.090285,-0.024657,0.090727,1.06875,11.34375,-55.743752
1782300449385,0.461815,1.684547,10.630018,0.114719,0.012606,0.098058,1.06875,11.34375,-55.743752
1782300449389,0.461815,1.684547,10.630018,0.114719,0.012606,0.098058,-0.91875,9.76875,-58.200001
1782300449393,0.40678,1.591227,10.831015,0.133656,0.03643,0.105388,-0.91875,9.76875,-58.200001
1782300449399,0.40678,1.591227,10.831015,0.133656,0.03643,0.105388,-0.375,10.63125,-56.981251
1782300449402,0.354138,1.529014,11.101404,0.147095,0.03643,0.11394,-0.375,10.63125,-56.981251
1782300449408,0.354138,1.529014,11.101404,0.147095,0.03643,0.11394,1.14375,10.9125,-57.581253
1782300449410,0.258425,1.481157,11.335901,0.160534,0.032765,0.124325,1.14375,10.9125,-57.581253
1782300449419,0.157926,1.459622,11.505791,0.181914,0.029099,0.137153,-1.4625,12.431251,-58.012501
1782300449429,0.052642,1.514657,11.536897,0.215512,0.030321,0.151203,2.19375,10.6125,-57.281254
1782300449436,0.002393,1.624727,11.438792,0.260105,0.030932,0.165864,2.19375,10.6125,-57.281254
1782300449438,0.002393,1.624727,11.438792,0.260105,0.030932,0.165864,0.76875,9.900001,-59.100002
1782300449445,-0.002393,1.694118,11.264116,0.304087,0.054145,0.176859,0.76875,9.900001,-59.100002
1782300449449,-0.002393,1.694118,11.264116,0.304087,0.054145,0.176859,-0.375,11.38125,-57.581253
1782300449453,-0.035892,1.696511,11.134903,0.324246,0.082245,0.1848,-0.375,11.38125,-57.581253
1782300449459,-0.035892,1.696511,11.134903,0.324246,0.082245,0.1848,-0.09375,9.0375,-59.718754
1782300449462,-0.20339,1.70369,11.053547,0.306531,0.117064,0.197018,-0.09375,9.0375,-59.718754
1782300449469,-0.20339,1.70369,11.053547,0.306531,0.117064,0.197018,0.6375,9.46875,-58.950001
1782300449470,-0.457029,1.79701,11.029619,0.254607,0.131114,0.211679,0.6375,9.46875,-58.950001
1782300449479,-0.457029,1.79701,11.029619,0.18558,0.106679,0.226339,0.6375,9.46875,-58.950001
1782300449480,-0.660419,1.89033,10.984155,0.18558,0.106679,0.226339,1.5,10.931251,-59.100002
1782300449489,-0.756132,1.892723,10.988941,0.118385,0.070638,0.241611,1.2,9.150001,-57.600002
1782300449496,-0.751346,1.79701,11.082262,0.061574,0.040095,0.252606,1.2,9.150001,-57.600002
1782300449498,-0.751346,1.79701,11.082262,0.061574,0.040095,0.252606,1.66875,9.0,-57.900002
1782300449506,-0.744168,1.634298,11.233009,0.018203,0.027267,0.259326,1.66875,9.0,-57.900002
1782300449509,-0.744168,1.634298,11.233009,0.018203,0.027267,0.259326,1.95,9.13125,-57.600002
1782300449514,-0.66999,1.442872,11.367007,-0.025169,0.034597,0.267267,1.95,9.13125,-57.600002
1782300449519,-0.66999,1.442872,11.367007,-0.025169,0.034597,0.267267,2.0625,11.94375,-58.931252
1782300449522,-0.555135,1.201197,11.496219,-0.085644,0.044371,0.272765,2.0625,11.94375,-58.931252
1782300449528,-0.555135,1.201197,11.496219,-0.085644,0.044371,0.272765,1.14375,10.9125,-57.581253
1782300449531,-0.440279,0.945165,11.678074,-0.174831,0.051091,0.277041,1.14375,10.9125,-57.581253
1782300449541,-0.33021,0.66999,11.859929,-0.291506,0.03643,0.280095,1.65,10.03125,-58.500004
1782300449549,-0.177069,0.387637,12.13271,-0.405127,-0.012439,0.280706,2.83125,11.19375,-58.481251
1782300449557,-0.07657,0.129212,12.441385,-0.488815,-0.080245,0.270322,2.83125,11.19375,-58.481251
1782300449558,-0.07657,0.129212,12.441385,-0.488815,-0.080245,0.270322,2.15625,10.78125,-60.768753
1782300449565,-0.16989,-0.174676,12.733308,-0.507141,-0.147441,0.253828,2.15625,10.78125,-60.768753
1782300449569,-0.16989,-0.174676,12.733308,-0.507141,-0.147441,0.253828,1.4625,12.093751,-59.081253
1782300449574,-0.16989,-0.174676,12.733308,-0.442389,-0.191423,0.250163,1.4625,12.093751,-59.081253
1782300449580,-0.189033,-0.267996,12.958234,-0.442389,-0.191423,0.250163,2.64375,9.150001,-60.168751
1782300449582,-0.179462,-0.133998,12.833807,-0.278067,-0.144386,0.24833,2.64375,9.150001,-60.168751
1782300449588,-0.179462,-0.133998,12.833807,-0.278067,-0.144386,0.24833,0.39375,12.1125,-58.781254
1782300449591,-0.150748,0.011964,11.905392,-0.044716,-0.058865,0.247109,0.39375,12.1125,-58.781254
1782300449600,-0.12682,0.208176,10.713767,0.166643,0.004665,0.248941,0.7125,12.1125,-59.531254
1782300449609,-0.133998,0.533599,9.924135,0.329744,0.04376,0.254439,1.2,10.63125,-58.800003
1782300449616,-0.138784,0.885344,9.371393,0.449473,0.098127,0.263602,1.2,10.63125,-58.800003
1782300449618,-0.138784,0.885344,9.371393,0.449473,0.098127,0.263602,2.38125,11.19375,-58.481251
1782300449625,-0.150748,1.150948,8.888043,0.513614,0.189146,0.273376,2.38125,11.19375,-58.481251
1782300449629,-0.150748,1.150948,8.888043,0.513614,0.189146,0.273376,1.3875,11.53125,-60.750004
1782300449634,-0.18664,1.284946,8.241981,0.513614,0.269169,0.275819,1.3875,11.53125,-60.750004
1782300449639,-0.18664,1.284946,8.241981,0.513614,0.269169,0.275819,0.46875,10.650001,-59.550003
1782300449642,-0.303888,1.371087,7.46192,0.429315,0.237404,0.272154,0.46875,10.650001,-59.550003
1782300449648,-0.303888,1.371087,7.46192,0.429315,0.237404,0.272154,2.15625,9.450001,-59.268753
1782300449651,-0.540778,1.37348,7.191532,0.244223,0.083466,0.266045,2.15625,9.450001,-59.268753
1782300449659,-0.540778,1.37348,7.191532,0.244223,0.083466,0.266045,-0.24375,9.918751,-60.168751
1782300449660,-0.387637,1.246661,7.540884,0.020035,-0.102237,0.265435,-0.24375,9.918751,-60.168751
1782300449669,-0.387637,1.246661,7.540884,-0.165057,-0.243346,0.264213,-0.24375,9.918751,-60.168751
1782300449670,-0.282353,0.961915,8.191731,-0.165057,-0.243346,0.264213,-0.24375,9.918751,-60.168751
1782300449671,-0.282353,0.961915,8.191731,-0.165057,-0.243346,0.264213,1.9875,10.63125,-59.850002
1782300449681,-0.392423,0.734597,8.813865,-0.28051,-0.290383,0.258715,1.44375,8.71875,-60.018753
1782300449685,-0.457029,0.696311,9.007684,-0.32266,-0.247622,0.258715,1.44375,8.71875,-60.018753
1782300449688,-0.457029,0.696311,9.007684,-0.32266,-0.247622,0.258715,1.3125,8.137501,-59.887501
1782300449694,-0.409173,0.646062,8.938292,-0.306166,-0.185925,0.26238,1.3125,8.137501,-59.887501
1782300449699,-0.409173,0.646062,8.938292,-0.306166,-0.185925,0.26238,1.7625,9.01875,-61.087502
1782300449702,-0.409173,0.646062,8.938292,-0.257908,-0.139499,0.265435,1.7625,9.01875,-61.087502
1782300449703,-0.358923,0.586242,8.799509,-0.257908,-0.139499,0.265435,1.7625,9.01875,-61.087502
1782300449709,-0.358923,0.586242,8.799509,-0.257908,-0.139499,0.265435,0.61875,10.05,-58.950001
1782300449711,-0.358923,0.586242,8.799509,-0.198654,-0.093684,0.270322,0.61875,10.05,-58.950001
1782300449712,-0.289532,0.586242,8.859329,-0.198654,-0.093684,0.270322,0.61875,10.05,-58.950001
1782300449719,-0.289532,0.586242,8.859329,-0.198654,-0.093684,0.270322,1.74375,8.26875,-59.268753
1782300449720,-0.29671,0.629312,8.967006,-0.1394,-0.039928,0.275819,1.74375,8.26875,-59.268753
1782300449730,-0.29671,0.629312,8.967006,-0.093586,0.010163,0.278263,-0.075,8.7375,-59.718754
1782300449731,-0.143569,0.646062,8.935899,-0.093586,0.010163,0.278263,-0.075,8.7375,-59.718754
1782300449737,-0.143569,0.646062,8.935899,-0.07587,0.044371,0.278263,-0.075,8.7375,-59.718754
1782300449738,0.023928,0.562313,8.876079,-0.07587,0.044371,0.278263,-0.075,8.7375,-59.718754
1782300449739,0.023928,0.562313,8.876079,-0.07587,0.044371,0.278263,-0.075,8.7375,-59.718754
1782300449745,0.023928,0.562313,8.876079,-0.095418,0.06453,0.272765,-0.075,8.7375,-59.718754
1782300449746,0.021535,0.540778,8.854543,-0.095418,0.06453,0.272765,-0.075,8.7375,-59.718754
1782300449749,0.021535,0.540778,8.854543,-0.095418,0.06453,0.272765,0.65625,10.5,-60.468754
1782300449754,0.021535,0.540778,8.854543,-0.1394,0.070638,0.261769,0.65625,10.5,-60.468754
1782300449755,-0.040678,0.586242,8.849758,-0.1394,0.070638,0.261769,0.65625,10.5,-60.468754
1782300449760,-0.040678,0.586242,8.849758,-0.1394,0.070638,0.261769,1.21875,9.900001,-59.100002
1782300449763,-0.083749,0.607777,8.816258,-0.190102,0.06514,0.248941,1.21875,9.900001,-59.100002
1782300449769,-0.083749,0.607777,8.816258,-0.190102,0.06514,0.248941,1.5375,9.900001,-59.550003
1782300449772,-0.102891,0.605384,8.823436,-0.224311,0.038262,0.231226,1.5375,9.900001,-59.550003
1782300449784,-0.16989,0.655633,8.85215,-0.227976,0.011384,0.20557,2.025,10.35,-60.918751
1782300449789,-0.16989,0.655633,8.85215,-0.192546,-0.002055,0.176248,2.025,10.35,-60.918751
1782300449791,-0.241675,0.753739,8.770794,-0.192546,-0.002055,0.176248,2.025,10.35,-60.918751
1782300449796,-0.232104,0.89013,8.655939,-0.121074,-0.006942,0.146927,0.4875,9.618751,-59.568752
1782300449799,-0.232104,0.89013,8.655939,-0.121074,-0.006942,0.146927,2.08125,8.868751,-61.387501
1782300449805,-0.260818,1.069592,8.500406,-0.024558,0.013217,0.117605,2.08125,8.868751,-61.387501
1782300449808,-0.260818,1.069592,8.500406,-0.024558,0.013217,0.117605,2.90625,10.481251,-60.468754
1782300449814,-0.105284,1.229911,8.196517,0.067683,0.039484,0.093171,2.90625,10.481251,-60.468754
1782300449819,-0.105284,1.229911,8.196517,0.067683,0.039484,0.093171,3.15,13.275001,-61.050003
1782300449822,-0.023928,1.371087,7.954842,0.133045,0.076136,0.073623,3.15,13.275001,-61.050003
1782300449828,-0.023928,1.371087,7.954842,0.133045,0.076136,0.073623,0.91875,10.481251,-59.250004
1782300449831,-0.019143,1.51705,7.68206,0.162367,0.111566,0.055297,0.91875,10.481251,-59.250004
1782300449839,-0.019143,1.51705,7.68206,0.162367,0.111566,0.055297,3.01875,10.3125,-59.100002
1782300449840,-0.01675,1.588834,7.378172,0.139154,0.126838,0.044912,3.01875,10.3125,-59.100002
1782300449850,-0.002393,1.607977,7.203496,0.064018,0.101792,0.036971,2.3625,9.150001,-60.618752
1782300449858,-0.014357,1.591227,7.390136,-0.051436,0.044371,0.027197,2.3625,9.150001,-60.618752
1782300449859,-0.014357,1.591227,7.390136,-0.051436,0.044371,0.027197,0.39375,9.7875,-61.537502
1782300449867,-0.095713,1.548156,7.883057,-0.165668,-0.018548,0.014369,0.39375,9.7875,-61.537502
1782300449869,-0.095713,1.548156,7.883057,-0.165668,-0.018548,0.014369,1.21875,10.931251,-60.150002
1782300449875,-0.095713,1.548156,7.883057,-0.240193,-0.064974,-0.000292,1.21875,10.931251,-60.150002
1782300449877,-0.174676,1.502693,8.390336,-0.240193,-0.064974,-0.000292,1.21875,10.931251,-60.150002
1782300449880,-0.174676,1.502693,8.390336,-0.240193,-0.064974,-0.000292,2.6625,10.35,-61.687504
1782300449895,-0.193819,1.416551,9.057933,-0.251189,-0.113843,-0.039387,2.45625,10.03125,-59.700001
1782300449899,-0.193819,1.416551,9.057933,-0.251189,-0.113843,-0.039387,2.26875,12.39375,-60.900002
1782300449900,-0.198604,1.399801,9.251751,-0.204763,-0.131558,-0.056491,2.26875,12.39375,-60.900002
1782300449910,-0.155533,1.375873,9.440785,-0.136957,-0.136445,-0.069319,1.59375,10.35,-61.687504
1782300449917,-0.117248,1.395016,9.620246,-0.063042,-0.117508,-0.07665,1.59375,10.35,-61.687504
1782300449919,-0.117248,1.395016,9.620246,-0.063042,-0.117508,-0.07665,2.60625,10.63125,-60.150002
1782300449926,-0.064606,1.452443,9.63939,0.011483,-0.088798,-0.080926,2.60625,10.63125,-60.150002
1782300449928,-0.064606,1.452443,9.63939,0.011483,-0.088798,-0.080926,1.70625,10.5,-60.768753
1782300449934,-0.086142,1.457229,9.560426,0.073181,-0.058865,-0.081537,1.70625,10.5,-60.768753
1782300449939,-0.086142,1.457229,9.560426,0.073181,-0.058865,-0.081537,1.3125,9.918751,-61.987503
1782300449943,-0.028714,1.485943,9.455142,0.116552,-0.039317,-0.074206,1.3125,9.918751,-61.987503
1782300449949,-0.028714,1.485943,9.455142,0.116552,-0.039317,-0.074206,1.3875,11.53125,-60.750004
1782300449951,-0.028714,1.485943,9.455142,0.147095,-0.028322,-0.072374,1.3875,11.53125,-60.750004
1782300449952,-0.035892,1.641476,9.383358,0.147095,-0.028322,-0.072374,1.3875,11.53125,-60.750004
1782300449959,-0.035892,1.641476,9.383358,0.147095,-0.028322,-0.072374,2.625,10.33125,-60.618752
1782300449960,-0.184247,1.852045,9.299609,0.177638,-0.019159,-0.067487,2.625,10.33125,-60.618752
1782300449970,-0.105284,1.897508,9.266109,0.211847,-0.012439,-0.071763,2.94375,10.03125,-60.768753
1782300449977,-0.105284,1.897508,9.266109,0.236281,0.004054,-0.087034,2.94375,10.03125,-60.768753
1782300449978,-0.131605,1.990828,9.285251,0.236281,0.004054,-0.087034,2.6625,9.6,-60.918751
1782300449997,-0.172283,2.096113,9.328322,0.250942,0.018715,-0.097419,2.9625,9.450001,-60.768753
1782300450000,-0.172283,2.096113,9.328322,0.250942,0.018715,-0.097419,3.54375,10.03125,-60.768753
1782300450003,-0.193819,2.261217,9.361822,0.230173,0.027267,-0.115745,3.54375,10.03125,-60.768753
1782300450008,-0.193819,2.261217,9.361822,0.230173,0.027267,-0.115745,3.28125,10.481251,-62.287502
1782300450011,-0.217747,2.268396,9.486249,0.19963,0.023602,-0.124908,3.28125,10.481251,-62.287502
1782300450019,-0.217747,2.268396,9.486249,0.19963,0.023602,-0.124908,0.8625,10.368751,-62.437504
1782300450020,-0.217747,2.268396,9.486249,0.167254,0.02238,-0.131627,0.8625,10.368751,-62.437504
1782300450021,-0.239282,2.294717,9.754244,0.167254,0.02238,-0.131627,0.8625,10.368751,-62.437504
1782300450030,-0.210568,2.285146,10.031812,0.139154,0.037651,-0.137736,2.2125,9.75,-61.537502
1782300450038,-0.193819,2.222932,10.333308,0.114109,0.06514,-0.14079,2.2125,9.75,-61.537502
1782300450039,-0.193819,2.222932,10.333308,0.114109,0.06514,-0.14079,2.2125,10.05,-61.537502
1782300450046,-0.193819,2.222932,10.333308,0.089063,0.092018,-0.143234,2.2125,10.05,-61.537502
1782300450047,-0.224925,2.09372,10.639589,0.089063,0.092018,-0.143234,2.2125,10.05,-61.537502
1782300450049,-0.224925,2.09372,10.639589,0.089063,0.092018,-0.143234,1.74375,8.71875,-60.018753
1782300450054,-0.287139,1.945365,10.965013,0.067683,0.115231,-0.143234,1.74375,8.71875,-60.018753
1782300450059,-0.287139,1.945365,10.965013,0.067683,0.115231,-0.143234,1.48125,9.0375,-61.537502
1782300450063,-0.318245,1.737189,11.326329,0.057298,0.120118,-0.14079,1.48125,9.0375,-61.537502
1782300450068,-0.318245,1.737189,11.326329,0.057298,0.120118,-0.14079,1.70625,10.5,-60.768753
1782300450071,-0.349352,1.548156,11.70918,0.064628,0.101792,-0.138347,1.70625,10.5,-60.768753
1782300450078,-0.349352,1.548156,11.70918,0.064628,0.101792,-0.138347,3.65625,8.71875,-63.056252
1782300450080,-0.368495,1.40698,12.044176,0.099448,0.09324,-0.135293,3.65625,8.71875,-63.056252
1782300450093,-0.368495,1.40698,12.044176,0.161756,0.09996,-0.127962,3.65625,8.71875,-63.056252
1782300450094,-0.37328,1.385444,12.228424,0.161756,0.09996,-0.127962,2.7,9.618751,-62.437504
1782300450097,-0.418744,1.519442,12.214066,0.258273,0.12867,-0.116967,2.7,9.618751,-62.437504
1782300450099,-0.418744,1.519442,12.214066,0.258273,0.12867,-0.116967,2.26875,8.7375,-62.306252
1782300450106,-0.521635,1.756332,11.953249,0.378002,0.156159,-0.10536,2.26875,8.7375,-62.306252
1782300450108,-0.521635,1.756332,11.953249,0.378002,0.156159,-0.10536,2.56875,8.71875,-62.306252
1782300450114,-0.356531,1.921437,11.434006,0.495899,0.154938,-0.0907,2.56875,8.71875,-62.306252
1782300450120,-0.356531,1.921437,11.434006,0.495899,0.154938,-0.0907,4.725,8.118751,-62.756252
1782300450123,-0.244068,1.971686,11.084654,0.580809,0.118286,-0.08398,4.725,8.118751,-62.756252
1782300450129,-0.244068,1.971686,11.084654,0.580809,0.118286,-0.08398,1.89375,7.275,-63.075001
1782300450132,-0.236889,2.100898,10.898014,0.602189,0.072471,-0.088256,1.89375,7.275,-63.075001
1782300450139,-0.236889,2.100898,10.898014,0.602189,0.072471,-0.088256,3.45,6.225,-63.393753
1782300450141,-0.244068,2.246861,10.601304,0.555764,0.014439,-0.096197,3.45,6.225,-63.393753
1782300450150,-0.234497,2.335395,10.357235,0.431758,-0.082078,-0.101695,3.50625,8.868751,-63.206253
1782300450157,-0.18664,2.335395,10.268701,0.246055,-0.204862,-0.113302,3.50625,8.868751,-63.206253
1782300450158,-0.18664,2.335395,10.268701,0.246055,-0.204862,-0.113302,3.24375,7.8375,-63.225002
1782300450166,0.057428,2.191826,10.452949,0.040805,-0.321537,-0.128573,3.24375,7.8375,-63.225002
1782300450169,0.057428,2.191826,10.452949,0.040805,-0.321537,-0.128573,3.675,8.26875,-63.056252
1782300450175,0.332602,1.897508,10.737694,-0.134513,-0.406447,-0.150564,3.675,8.26875,-63.056252
1782300450180,0.332602,1.897508,10.737694,-0.134513,-0.406447,-0.150564,2.5125,6.675,-62.775002
1782300450195,0.725025,1.17009,11.44597,-0.368475,-0.413167,-0.200044,2.5125,6.675,-62.775002
1782300450199,0.725025,1.17009,11.44597,-0.368475,-0.413167,-0.200044,2.23125,4.89375,-61.725002
1782300450200,0.880559,0.811167,11.792929,-0.445444,-0.351469,-0.215927,2.23125,4.89375,-61.725002
1782300450210,0.926022,0.507278,12.115961,-0.486372,-0.287939,-0.225701,0.7875,8.00625,-62.306252
1782300450217,0.926022,0.507278,12.115961,-0.466213,-0.236627,-0.222035,0.7875,8.00625,-62.306252
1782300450218,0.921237,0.287139,12.391135,-0.466213,-0.236627,-0.222035,0.7875,8.00625,-62.306252
1782300450219,0.921237,0.287139,12.391135,-0.466213,-0.236627,-0.222035,1.7625,5.64375,-62.025002
1782300450226,0.921237,0.287139,12.391135,-0.356868,-0.14683,-0.215316,1.7625,5.64375,-62.025002
1782300450227,0.918844,0.160319,12.651953,-0.356868,-0.14683,-0.215316,1.7625,5.64375,-62.025002
1782300450228,0.918844,0.160319,12.651953,-0.356868,-0.14683,-0.215316,1.74375,7.875,-63.975002
1782300450235,0.909273,0.145962,12.532312,-0.148563,-0.028322,-0.210429,1.74375,7.875,-63.975002
1782300450240,0.909273,0.145962,12.532312,-0.148563,-0.028322,-0.210429,2.1,8.868751,-61.987503
1782300450244,0.854238,0.253639,11.895821,0.097615,0.09996,-0.20432,2.1,8.868751,-61.987503
1782300450250,0.854238,0.253639,11.895821,0.097615,0.09996,-0.20432,1.48125,7.875,-65.043755
1782300450252,0.854238,0.253639,11.895821,0.290038,0.183037,-0.198823,1.48125,7.875,-65.043755
1782300450253,0.768096,0.418744,11.067904,0.290038,0.183037,-0.198823,1.48125,7.875,-65.043755
1782300450260,0.768096,0.418744,11.067904,0.290038,0.183037,-0.198823,3.65625,9.01875,-63.356251
1782300450261,0.66999,0.602991,10.548662,0.387165,0.229463,-0.187827,3.65625,9.01875,-63.356251
1782300450270,0.55992,0.756132,10.10599,0.4116,0.270391,-0.176221,1.6125,7.575,-64.125
1782300450278,0.452243,0.894916,9.57239,0.381667,0.294215,-0.166447,1.6125,7.575,-64.125
1782300450279,0.452243,0.894916,9.57239,0.381667,0.294215,-0.166447,3.1125,8.2875,-64.425003
1782300450288,0.344566,1.007378,9.029219,0.30592,0.28383,-0.157284,3.1125,8.2875,-64.425003
1782300450289,0.344566,1.007378,9.029219,0.30592,0.28383,-0.157284,2.5125,6.375,-62.775002
1782300450304,0.184247,1.055235,8.713367,0.095783,0.150051,-0.14751,2.85,6.675,-64.293755
1782300450309,0.184247,1.055235,8.713367,0.095783,0.150051,-0.14751,3.1125,7.25625,-63.375004
1782300450312,0.191426,1.057628,8.914363,0.017592,0.085299,-0.14751,3.1125,7.25625,-63.375004
1782300450318,0.191426,1.057628,8.914363,0.017592,0.085299,-0.14751,1.48125,7.425,-64.293755
1782300450320,0.244068,0.942772,9.022041,-0.029445,0.051091,-0.154229,1.48125,7.425,-64.293755
1782300450329,0.270389,0.794417,9.098611,-0.055712,0.047425,-0.160949,2.34375,7.55625,-63.375004
1782300450339,0.267996,0.732204,9.10579,-0.072205,0.049869,-0.171334,2.34375,7.55625,-63.375004
1782300450340,0.267996,0.732204,9.10579,-0.072205,0.049869,-0.171334,3.73125,7.25625,-64.143753
1782300450346,0.248854,0.710668,9.050755,-0.088699,0.042538,-0.178053,3.73125,7.25625,-64.143753
1782300450349,0.248854,0.710668,9.050755,-0.088699,0.042538,-0.178053,0.99375,7.425,-63.525002
1782300450355,0.289532,0.770489,8.952649,-0.11069,0.025434,-0.184162,0.99375,7.425,-63.525002
1782300450360,0.289532,0.770489,8.952649,-0.11069,0.025434,-0.184162,3.1875,8.118751,-62.006252
1782300450363,0.150748,0.715454,8.91915,-0.138179,-0.003276,-0.195157,3.1875,8.118751,-62.006252
1782300450369,0.150748,0.715454,8.91915,-0.138179,-0.003276,-0.195157,2.85,6.675,-63.993752
1782300450372,-0.011964,0.650848,8.821044,-0.168111,-0.027711,-0.190881,2.85,6.675,-63.993752
1782300450379,-0.011964,0.650848,8.821044,-0.168111,-0.027711,-0.190881,3.43125,7.25625,-63.675003
1782300450380,0.0335,0.658026,8.816258,-0.196822,-0.04787,-0.187216,3.43125,7.25625,-63.675003
1782300450390,0.07657,0.696311,8.840187,-0.2237,-0.038707,-0.188438,2.38125,7.275,-64.143753
1782300450404,0.098106,0.751346,8.835401,-0.240193,-0.017326,-0.185384,3.2625,7.10625,-63.225002
1782300450407,0.141177,0.789631,8.799509,-0.246302,0.013217,-0.180497,3.2625,7.10625,-63.225002
1782300450408,0.141177,0.789631,8.799509,-0.246302,0.013217,-0.180497,1.65,6.99375,-64.443756
1782300450415,0.210568,0.81356,8.689438,-0.246913,0.046814,-0.176221,1.65,6.99375,-64.443756
1782300450419,0.210568,0.81356,8.689438,-0.246913,0.046814,-0.176221,2.8125,7.85625,-64.275002
1782300450424,0.217747,0.854238,8.608082,-0.243247,0.070638,-0.17561,2.8125,7.85625,-64.275002
1782300450429,0.217747,0.854238,8.608082,-0.243247,0.070638,-0.17561,3.65625,7.125,-66.112503
1782300450432,0.241675,0.937986,8.526726,-0.23103,0.067584,-0.17561,3.65625,7.125,-66.112503
1782300450439,0.241675,0.937986,8.526726,-0.23103,0.067584,-0.17561,2.475,7.85625,-63.225002
1782300450441,0.301496,1.021735,8.435799,-0.209039,0.060253,-0.173777,2.475,7.85625,-63.225002
1782300450450,0.320638,1.07677,8.373586,-0.177274,0.057199,-0.173777,3.3375,6.375,-64.59375
1782300450460,0.284746,1.138984,8.287445,-0.131459,0.057199,-0.174999,2.23125,7.425,-64.59375
1782300450467,0.236889,1.222732,8.227623,-0.081368,0.065751,-0.170723,2.23125,7.425,-64.59375
1782300450469,0.236889,1.222732,8.227623,-0.081368,0.065751,-0.170723,2.64375,8.7375,-64.125
1782300450475,0.215354,1.287339,8.086447,-0.036775,0.094462,-0.163392,2.64375,8.7375,-64.125
1782300450479,0.215354,1.287339,8.086447,-0.036775,0.094462,-0.163392,2.7375,9.618751,-63.206253
1782300450484,0.181855,1.354338,7.969199,-0.008675,0.132946,-0.151786,2.7375,9.618751,-63.206253
1782300450489,0.181855,1.354338,7.969199,-0.008675,0.132946,-0.151786,1.06875,7.55625,-61.556252
1782300450492,0.181855,1.354338,7.969199,-0.001345,0.168987,-0.137125,1.06875,7.55625,-61.556252
1782300450493,0.117248,1.380659,7.878272,-0.001345,0.168987,-0.137125,1.06875,7.55625,-61.556252
1782300450499,0.117248,1.380659,7.878272,-0.001345,0.168987,-0.137125,3.50625,9.918751,-64.256256
1782300450510,-0.038285,1.485943,7.942878,-0.039829,0.201363,-0.097419,4.10625,8.71875,-62.606251
1782300450519,-0.059821,1.543371,8.048162,-0.067929,0.203196,-0.071763,1.9125,8.025001,-64.425003
1782300450526,-0.059821,1.543371,8.048162,-0.078925,0.201974,-0.045496,1.9125,8.025001,-64.425003
1782300450527,-0.071785,1.598405,8.18216,-0.078925,0.201974,-0.045496,1.9125,8.025001,-64.425003
1782300450528,-0.071785,1.598405,8.18216,-0.078925,0.201974,-0.045496,3.4125,8.2875,-64.125
1782300450535,-0.064606,1.651048,8.335301,-0.069151,0.217246,-0.021061,3.4125,8.2875,-64.125
1782300450539,-0.064606,1.651048,8.335301,-0.069151,0.217246,-0.021061,4.10625,9.01875,-63.356251
1782300450544,-0.105284,1.677369,8.507584,-0.036775,0.245346,0.002152,4.10625,9.01875,-63.356251
1782300450549,-0.105284,1.677369,8.507584,-0.036775,0.245346,0.002152,4.25625,9.6,-63.506252
1782300450553,-0.165105,1.677369,8.603297,0.004153,0.275889,0.027808,4.25625,9.6,-63.506252
1782300450559,-0.165105,1.677369,8.603297,0.004153,0.275889,0.027808,4.0125,9.168751,-65.325005
1782300450561,-0.241675,1.674976,8.663118,0.038972,0.296047,0.05041,4.0125,9.168751,-65.325005
1782300450570,-0.318245,1.682154,8.655939,0.056687,0.283219,0.07179,4.0125,8.587501,-64.575005
1782300450579,-0.358923,1.641476,8.689438,0.054244,0.240459,0.095614,2.56875,7.125,-65.043755
1782300450586,-0.397209,1.581656,8.818651,0.028587,0.181816,0.12066,2.56875,7.125,-65.043755
1782300450588,-0.397209,1.581656,8.818651,0.028587,0.181816,0.12066,3.5625,9.618751,-65.325005
1782300450595,-0.40678,1.57687,9.067504,-0.005621,0.12134,0.146316,3.5625,9.618751,-65.325005
1782300450601,-0.40678,1.57687,9.067504,-0.005621,0.12134,0.146316,4.35,8.137501,-65.34375
1782300450603,-0.397209,1.569692,9.337893,-0.03311,0.056588,0.170751,4.35,8.137501,-65.34375
1782300450609,-0.397209,1.569692,9.337893,-0.03311,0.056588,0.170751,4.03125,8.587501,-65.34375
1782300450612,-0.387637,1.588834,9.522141,-0.04044,-0.014883,0.192131,4.03125,8.587501,-65.34375
1782300450618,-0.387637,1.588834,9.522141,-0.04044,-0.014883,0.192131,3.76875,9.0375,-66.993752
1782300450621,-0.358923,1.646262,9.610675,-0.024558,-0.092463,0.206181,3.76875,9.0375,-66.993752
1782300450630,-0.308674,1.694118,9.574783,0.012705,-0.16088,0.215955,4.06875,7.85625,-65.34375
1782300450640,-0.229711,1.76351,9.529319,0.064018,-0.217079,0.221452,4.2,8.7375,-65.493752
1782300450647,-0.11007,1.837688,9.517355,0.114719,-0.251898,0.225728,4.2,8.7375,-65.493752
1782300450649,-0.11007,1.837688,9.517355,0.114719,-0.251898,0.225728,3.5625,8.137501,-63.975002
1782300450655,-0.11007,1.837688,9.517355,0.153815,-0.257396,0.230004,3.5625,8.137501,-63.975002
1782300450656,-0.007178,1.883151,9.560426,0.153815,-0.257396,0.230004,3.5625,8.137501,-63.975002
1782300450660,-0.007178,1.883151,9.560426,0.153815,-0.257396,0.230004,3.5625,8.137501,-63.975002
1782300450664,0.069392,1.945365,9.653746,0.179471,-0.253731,0.23367,3.5625,8.137501,-63.975002
1782300450669,0.069392,1.945365,9.653746,0.179471,-0.253731,0.23367,4.35,8.137501,-65.34375
1782300450672,0.069392,1.945365,9.653746,0.19291,-0.256785,0.236724,4.35,8.137501,-65.34375
1782300450673,0.122034,2.021935,9.852351,0.19291,-0.256785,0.236724,4.35,8.137501,-65.34375
1782300450679,0.122034,2.021935,9.852351,0.19291,-0.256785,0.236724,4.35,8.137501,-65.34375
1782300450681,0.20339,2.088934,10.149061,0.200851,-0.25984,0.239167,4.35,8.137501,-65.34375
1782300450689,0.20339,2.088934,10.149061,0.20696,-0.260451,0.241611,4.35,8.137501,-65.34375
1782300450691,0.334995,2.09372,10.395521,0.20696,-0.260451,0.241611,3.20625,7.275,-66.262505
1782300450700,0.421137,2.031507,10.718552,0.217956,-0.261672,0.237946,3.5625,6.54375,-67.03125
1782300450715,0.39003,1.81376,11.338294,0.239947,-0.259229,0.227561,4.06875,7.40625,-65.043755
1782300450716,0.39003,1.81376,11.338294,0.269268,-0.254953,0.219009,4.06875,7.40625,-65.043755
1782300450718,0.39003,1.81376,11.338294,0.269268,-0.254953,0.219009,2.86875,6.39375,-64.59375
1782300450724,0.356531,1.777867,11.594326,0.306531,-0.247622,0.214733,2.86875,6.39375,-64.59375
1782300450729,0.356531,1.777867,11.594326,0.306531,-0.247622,0.214733,3.675,6.09375,-65.8125
1782300450732,0.325424,1.765903,11.74268,0.351124,-0.237238,0.211679,3.675,6.09375,-65.8125
1782300450739,0.325424,1.765903,11.74268,0.351124,-0.237238,0.211679,1.725,6.5625,-66.731255
1782300450741,0.299103,1.794617,11.766609,0.40488,-0.228075,0.207402,1.725,6.5625,-66.731255
1782300450749,0.299103,1.794617,11.766609,0.40488,-0.228075,0.207402,3.1875,6.24375,-64.912506
1782300450750,0.181855,1.852045,11.673289,0.46108,-0.214636,0.206792,3.1875,6.24375,-64.912506
1782300450759,0.181855,1.852045,11.673289,0.51056,-0.188368,0.210457,3.1875,6.24375,-64.912506
1782300450760,0.021535,1.938186,11.527326,0.51056,-0.188368,0.210457,0.825,5.68125,-66.131256
1782300450767,-0.09332,2.067399,11.321543,0.538049,-0.149884,0.219009,0.825,5.68125,-66.131256
1782300450769,-0.09332,2.067399,11.321543,0.538049,-0.149884,0.219009,1.875,6.4125,-66.581253
1782300450776,-0.275175,2.014757,11.261723,0.536827,-0.105902,0.226339,1.875,6.4125,-66.581253
1782300450779,-0.275175,2.014757,11.261723,0.536827,-0.105902,0.226339,0.73125,5.85,-67.800003
1782300450796,-0.471386,2.062613,11.11576,0.495288,-0.041761,0.253217,1.21875,4.66875,-67.650002
1782300450797,-0.78006,2.423929,10.809479,0.434813,0.005276,0.282539,1.21875,4.66875,-67.650002
1782300450799,-0.78006,2.423929,10.809479,0.434813,0.005276,0.282539,2.8875,4.8,-68.100006
1782300450801,-0.892523,2.488536,10.594125,0.36945,0.02238,0.310028,2.8875,4.8,-68.100006
1782300450817,-0.842274,2.498107,10.452949,0.287594,0.032765,0.341182,2.9625,5.3625,-66.581253
1782300450819,-0.842274,2.498107,10.452949,0.183747,0.027267,0.36134,2.9625,5.3625,-66.581253
1782300450820,-0.698704,2.344966,10.498413,0.183747,0.027267,0.36134,0.99375,1.85625,-67.21875
1782300450827,-0.571885,2.021935,10.780765,0.050579,0.005276,0.373558,0.99375,1.85625,-67.21875
1782300450829,-0.571885,2.021935,10.780765,0.050579,0.005276,0.373558,1.425,3.3375,-68.118752
1782300450835,-0.504886,1.682154,11.309579,-0.119242,-0.01977,0.378445,1.425,3.3375,-68.118752
1782300450838,-0.504886,1.682154,11.309579,-0.119242,-0.01977,0.378445,0.01875,3.3375,-66.75
1782300450844,-0.5001,1.31366,11.905392,-0.311053,-0.064974,0.380277,0.01875,3.3375,-66.75
1782300450849,-0.5001,1.31366,11.905392,-0.311053,-0.064974,0.380277,3.675,4.05,-68.568756
1782300450852,-0.404387,0.897308,12.412671,-0.490648,-0.141332,0.381499,3.675,4.05,-68.568756
1782300450859,-0.404387,0.897308,12.412671,-0.490648,-0.141332,0.381499,1.8375,3.76875,-67.050003
1782300450861,-0.291924,0.485743,12.788344,-0.613431,-0.258618,0.379055,1.8375,3.76875,-67.050003
1782300450868,-0.291924,0.485743,12.788344,-0.613431,-0.258618,0.379055,0.91875,3.6375,-66.900002
1782300450869,-0.229711,0.265603,13.058733,-0.643975,-0.378347,0.378445,0.91875,3.6375,-66.900002
1782300450879,-0.07657,0.16989,13.52294,-0.54868,-0.421108,0.37539,1.44375,4.5375,-69.618752
1782300450887,0.136391,0.131605,13.448762,-0.295782,-0.304433,0.371114,1.44375,4.5375,-69.618752
1782300450888,0.136391,0.131605,13.448762,-0.295782,-0.304433,0.371114,0.15,4.2375,-67.200005
1782300450896,0.143569,0.287139,12.168602,0.026755,-0.134612,0.36806,0.15,4.2375,-67.200005
1782300450898,0.143569,0.287139,12.168602,0.026755,-0.134612,0.36806,2.75625,3.9,-67.650002
1782300450904,0.055035,0.567099,10.66591,0.273544,-0.039317,0.372947,2.75625,3.9,-67.650002
1782300450913,0.055035,0.567099,10.66591,0.406713,-0.005109,0.380888,1.78125,5.53125,-67.5
1782300450914,-0.002393,0.820738,9.823637,0.406713,-0.005109,0.380888,1.78125,5.53125,-67.5
1782300450918,-0.002393,0.820738,9.823637,0.406713,-0.005109,0.380888,1.0875,4.51875,-68.100006
1782300450921,0.145962,1.148555,9.330715,0.469021,0.03643,0.386386,1.0875,4.51875,-68.100006
1782300450928,0.145962,1.148555,9.330715,0.469021,0.03643,0.386386,-0.525,2.925,-67.96875
1782300450930,-0.155533,1.222732,8.864114,0.476962,0.11401,0.388829,-0.525,2.925,-67.96875
1782300450940,-0.155533,1.222732,8.864114,0.422595,0.171431,0.394938,-0.525,2.925,-67.96875
1782300450941,-0.244068,1.261018,8.253945,0.422595,0.171431,0.394938,1.14375,3.05625,-68.587502
1782300450947,-0.244068,1.261018,8.253945,0.287594,0.153716,0.383332,1.14375,3.05625,-68.587502
1782300450949,-0.354138,1.265803,7.746666,0.287594,0.153716,0.383332,0.4125,2.325,-68.587502
1782300450956,-0.464208,1.141376,7.729917,0.08662,0.054756,0.369893,0.4125,2.325,-68.587502
1782300450959,-0.464208,1.141376,7.729917,0.08662,0.054756,0.369893,1.36875,3.76875,-66.75
1782300450964,-0.464208,1.141376,7.729917,-0.119853,-0.065585,0.361951,1.36875,3.76875,-66.75
1782300450965,-0.413958,1.031307,8.146267,-0.119853,-0.065585,0.361951,1.36875,3.76875,-66.75
1782300450971,-0.413958,1.031307,8.146267,-0.119853,-0.065585,0.361951,0.525,3.65625,-68.418755
1782300450974,-0.37328,0.882952,8.660725,-0.271347,-0.153549,0.344236,0.525,3.65625,-68.418755
1782300450979,-0.37328,0.882952,8.660725,-0.271347,-0.153549,0.344236,0.20625,2.90625,-67.668755
1782300450982,-0.294317,0.631705,9.091433,-0.350149,-0.190201,0.32591,0.20625,2.90625,-67.668755
1782300450989,-0.294317,0.631705,9.091433,-0.350149,-0.190201,0.32591,1.40625,4.06875,-68.118752
1782300450991,-0.212961,0.521635,9.325929,-0.366642,-0.179206,0.313693,1.40625,4.06875,-68.118752
1782300451001,-0.145962,0.504886,9.347465,-0.334877,-0.155382,0.306973,0.1125,1.59375,-67.837502
1782300451008,-0.040678,0.519243,9.407285,-0.263406,-0.115065,0.303919,0.1125,1.59375,-67.837502
1782300451009,-0.040678,0.519243,9.407285,-0.263406,-0.115065,0.303919,0.35625,3.35625,-68.118752
1782300451030,0.078963,0.641276,9.246966,-0.08992,-0.014883,0.314915,-0.28125,3.6375,-66.900002
1782300451033,0.289532,0.674776,9.024434,-0.02639,0.02971,0.328965,-0.28125,3.6375,-66.900002
1782300451039,0.289532,0.674776,9.024434,-0.02639,0.02971,0.328965,0.825,2.75625,-67.518753
1782300451042,0.509671,0.653241,8.926328,-0.02639,0.02971,0.328965,0.825,2.75625,-67.518753
1782300451043,0.509671,0.653241,8.926328,0.007207,0.044982,0.343014,0.825,2.75625,-67.518753
1782300451049,0.509671,0.653241,8.926328,0.007207,0.044982,0.343014,-0.24375,3.95625,-68.418755
1782300451050,0.547956,0.727418,8.967006,0.013316,0.05048,0.349734,-0.24375,3.95625,-68.418755
1782300451060,0.547956,0.727418,8.967006,0.006596,0.060253,0.349123,-0.24375,3.95625,-68.418755
1782300451061,0.411565,0.854238,9.043577,0.006596,0.060253,0.349123,0.4875,4.6875,-68.71875
1782300451067,0.334995,0.928415,9.002899,-0.00501,0.063308,0.347291,0.4875,4.6875,-68.71875
1782300451069,0.334995,0.928415,9.002899,-0.00501,0.063308,0.347291,0.39375,3.05625,-68.887505
1782300451077,0.267996,0.964308,8.833008,-0.01173,0.04376,0.33996,0.39375,3.05625,-68.887505
1782300451079,0.267996,0.964308,8.833008,-0.01173,0.04376,0.33996,-0.75,4.8375,-67.800003
1782300451085,0.229711,1.040878,8.584155,-0.011119,0.010163,0.328354,-0.75,4.8375,-67.800003
1782300451090,0.229711,1.040878,8.584155,-0.011119,0.010163,0.328354,-0.20625,2.925,-68.4375
1782300451093,0.229711,1.040878,8.584155,0.008429,-0.027711,0.312471,-0.20625,2.925,-68.4375
1782300451094,0.232104,1.177269,8.366408,0.008429,-0.027711,0.312471,-0.20625,2.925,-68.4375
1782300451100,0.232104,1.177269,8.366408,0.008429,-0.027711,0.312471,0.525,3.9375,-68.71875
1782300451102,0.291924,1.301695,8.194125,0.045692,-0.045426,0.299032,0.525,3.9375,-68.71875
1782300451108,0.291924,1.301695,8.194125,0.045692,-0.045426,0.299032,-0.73125,4.8375,-68.568756
1782300451110,0.325424,1.423729,8.014663,0.087841,-0.031376,0.284371,-0.73125,4.8375,-68.568756
1782300451120,0.370888,1.567299,7.79213,0.124493,0.008941,0.27643,1.29375,3.1875,-68.418755
1782300451127,0.409173,1.68694,7.579169,0.141597,0.051701,0.268489,1.29375,3.1875,-68.418755
1782300451128,0.409173,1.68694,7.579169,0.141597,0.051701,0.268489,1.29375,3.1875,-68.418755
1782300451136,0.512064,1.799403,7.366208,0.126937,0.09324,0.258715,1.29375,3.1875,-68.418755
1782300451138,0.512064,1.799403,7.366208,0.126937,0.09324,0.258715,-1.29375,3.975,-68.71875
1782300451145,0.528814,1.828117,7.294423,0.0799,0.107901,0.239778,-1.29375,3.975,-68.71875
1782300451149,0.528814,1.828117,7.294423,0.0799,0.107901,0.239778,0.54375,2.175,-67.987503
1782300451153,0.521635,1.808974,7.380565,0.005375,0.104236,0.218398,0.54375,2.175,-67.987503
1782300451158,0.521635,1.808974,7.380565,0.005375,0.104236,0.218398,0.4125,2.775,-68.887505
1782300451161,0.521635,1.79701,7.643775,-0.091142,0.081023,0.195185,0.4125,2.775,-68.887505
1782300451168,0.521635,1.79701,7.643775,-0.091142,0.081023,0.195185,-0.1875,2.175,-68.4375
1782300451170,0.480957,1.777867,8.036198,-0.190102,0.046814,0.166475,-0.1875,2.175,-68.4375
1782300451180,0.449851,1.725225,8.395121,-0.267071,0.007108,0.137764,1.14375,2.75625,-68.118752
1782300451187,0.449851,1.725225,8.395121,-0.311664,-0.028933,0.111497,1.14375,2.75625,-68.118752
1782300451188,0.4666,1.696511,8.679867,-0.311664,-0.028933,0.111497,0.20625,2.45625,-66.918755
1782300451196,0.507278,1.658226,8.895221,-0.314108,-0.060087,0.08584,0.20625,2.45625,-66.918755
1782300451199,0.507278,1.658226,8.895221,-0.314108,-0.060087,0.08584,0.76875,4.0875,-67.5
1782300451205,0.519243,1.61037,9.084254,-0.275012,-0.075359,0.063238,0.76875,4.0875,-67.5
1782300451209,0.519243,1.61037,9.084254,-0.275012,-0.075359,0.063238,0.45,2.325,-69.65625
1782300451213,0.519243,1.61037,9.084254,-0.204152,-0.061919,0.041858,0.45,2.325,-69.65625
1782300451214,0.535992,1.548156,9.249359,-0.204152,-0.061919,0.041858,0.45,2.325,-69.65625
1782300451228,0.540778,1.562513,9.383358,-0.110079,-0.01305,0.025976,1.93125,3.05625,-69.637505
1782300451229,0.540778,1.562513,9.383358,-0.110079,-0.01305,0.025976,1.425,4.0875,-68.868752
1782300451230,0.540778,1.562513,9.383358,-0.008675,0.05781,0.013147,1.425,4.0875,-68.868752
1782300451231,0.504886,1.605584,9.431214,-0.008675,0.05781,0.013147,1.425,4.0875,-68.868752
1782300451239,0.504886,1.605584,9.431214,0.086009,0.134779,0.000319,1.425,4.0875,-68.868752
1782300451240,0.461815,1.667797,9.318751,0.086009,0.134779,0.000319,0.0375,4.0875,-67.818756
1782300451247,0.354138,1.794617,9.184753,0.152593,0.183037,-0.007622,0.0375,4.0875,-67.818756
1782300451248,0.354138,1.794617,9.184753,0.152593,0.183037,-0.007622,0.39375,4.10625,-69.637505
1782300451257,0.236889,1.916651,9.014863,0.19291,0.205028,-0.010676,0.39375,4.10625,-69.637505
1782300451259,0.236889,1.916651,9.014863,0.19291,0.205028,-0.010676,1.40625,3.7875,-68.118752
1782300451265,0.181855,2.045863,8.785151,0.210014,0.204418,-0.013731,1.40625,3.7875,-68.118752
1782300451270,0.181855,2.045863,8.785151,0.210014,0.204418,-0.013731,-0.73125,2.94375,-71.006256
1782300451274,0.181855,2.045863,8.785151,0.208182,0.173263,-0.018617,-0.73125,2.94375,-71.006256
1782300451275,0.157926,2.206182,8.684653,0.208182,0.173263,-0.018617,-0.73125,2.94375,-71.006256
1782300451279,0.157926,2.206182,8.684653,0.208182,0.173263,-0.018617,0.39375,3.35625,-68.887505
1782300451282,0.12682,2.349752,8.727724,0.201462,0.138444,-0.02778,0.39375,3.35625,-68.887505
1782300451289,0.12682,2.349752,8.727724,0.201462,0.138444,-0.02778,0.58125,3.225,-69.787506
1782300451291,0.265603,2.414358,8.763616,0.189245,0.100571,-0.032667,0.58125,3.225,-69.787506
1782300451301,0.258425,2.5005,8.900007,0.173973,0.089575,-0.042441,0.35625,3.35625,-67.818756
1782300451308,0.200997,2.600998,8.998112,0.158702,0.088964,-0.053437,0.35625,3.35625,-67.818756
1782300451309,0.200997,2.600998,8.998112,0.158702,0.088964,-0.053437,0.5625,1.14375,-67.6875
1782300451317,0.145962,2.617748,9.141682,0.145873,0.088353,-0.061989,0.5625,1.14375,-67.6875
1782300451319,0.145962,2.617748,9.141682,0.145873,0.088353,-0.061989,-0.31875,3.375,-70.387505
1782300451337,0.136391,2.627319,9.325929,0.102502,0.049869,-0.078482,0.7875,4.51875,-68.100006
1782300451339,0.136391,2.627319,9.325929,0.102502,0.049869,-0.078482,0.28125,1.89375,-68.737503
1782300451342,0.136391,2.627319,9.325929,0.073791,0.021158,-0.084591,0.28125,1.89375,-68.737503
1782300451343,0.129212,2.67039,9.768602,0.073791,0.021158,-0.084591,0.28125,1.89375,-68.737503
1782300451349,0.129212,2.67039,9.768602,0.073791,0.021158,-0.084591,1.2,2.025,-69.356255
1782300451351,0.129212,2.67039,9.768602,0.049968,-0.008774,-0.091921,1.2,2.025,-69.356255
1782300451352,0.193819,2.603391,10.07249,0.049968,-0.008774,-0.091921,1.2,2.025,-69.356255
1782300451360,0.193819,2.603391,10.07249,0.031031,-0.031987,-0.099252,1.2,2.025,-69.356255
1782300451361,0.229711,2.490928,10.438592,0.031031,-0.031987,-0.099252,0.6,2.175,-69.806252
1782300451369,0.22014,2.388037,10.831015,0.018203,-0.044204,-0.104749,-0.35625,1.18125,-71.625
1782300451376,0.256032,2.242075,11.189938,0.010261,-0.037485,-0.109636,-0.35625,1.18125,-71.625
1782300451378,0.256032,2.242075,11.189938,0.010261,-0.037485,-0.109636,1.03125,1.425,-68.4375
1782300451385,0.227318,2.055435,11.503398,0.006596,-0.028322,-0.113912,1.03125,1.425,-68.4375
1782300451389,0.227318,2.055435,11.503398,0.006596,-0.028322,-0.113912,0.61875,2.475,-70.256256
1782300451393,0.145962,1.880759,11.757037,0.012705,-0.012439,-0.115745,0.61875,2.475,-70.256256
1782300451398,0.145962,1.880759,11.757037,0.012705,-0.012439,-0.115745,0.975,2.15625,-67.21875
1782300451402,0.019143,1.804188,11.938892,0.034085,0.007719,-0.11208,0.975,2.15625,-67.21875
1782300451408,0.019143,1.804188,11.938892,0.034085,0.007719,-0.11208,1.5,2.025,-69.356255
1782300451410,-0.083749,1.840081,12.041783,0.080511,0.024823,-0.10536,1.5,2.025,-69.356255
1782300451419,-0.083749,1.840081,12.041783,0.162367,0.040095,-0.096197,1.5,2.025,-69.356255
1782300451420,-0.174676,1.928615,11.96282,0.162367,0.040095,-0.096197,-0.6375,2.34375,-68.587502
1782300451433,-0.174676,1.928615,11.96282,0.274155,0.056588,-0.088867,-0.6375,2.34375,-68.587502
1782300451434,-0.181855,2.017149,11.821643,0.274155,0.056588,-0.088867,0.075,3.05625,-68.118752
1782300451436,-0.155533,2.074577,11.632611,0.385332,0.078579,-0.085202,0.075,3.05625,-68.118752
1782300451439,-0.155533,2.074577,11.632611,0.385332,0.078579,-0.085202,0.9375,0.84375,-69.356255
1782300451445,-0.177069,2.086541,11.390935,0.467799,0.090797,-0.085813,0.9375,0.84375,-69.356255
1782300451451,-0.177069,2.086541,11.390935,0.467799,0.090797,-0.085813,0.375,-0.61875,-69.075005
1782300451454,-0.27996,2.148755,11.127725,0.501397,0.086521,-0.090089,0.375,-0.61875,-69.075005
1782300451459,-0.27996,2.148755,11.127725,0.501397,0.086521,-0.090089,1.40625,1.14375,-70.275002
1782300451462,-0.31346,2.316252,10.783159,0.481238,0.068806,-0.096808,1.40625,1.14375,-70.275002
1782300451469,-0.31346,2.316252,10.783159,0.481238,0.068806,-0.096808,1.2375,0.54375,-68.90625
1782300451471,-0.222533,2.464607,10.417057,0.409156,0.021769,-0.104139,1.2375,0.54375,-68.90625
1782300451480,-0.222533,2.464607,10.417057,0.288205,-0.058865,-0.11941,1.2375,0.54375,-68.90625
1782300451481,-0.078963,2.467,10.027027,0.288205,-0.058865,-0.11941,-0.01875,-2.53125,-69.09375
1782300451489,-0.078963,2.467,10.027027,0.12938,-0.138278,-0.135904,-0.01875,-2.53125,-69.09375
1782300451491,0.153141,2.311467,10.204095,0.12938,-0.138278,-0.135904,1.18125,-2.1,-69.543755
1782300451497,0.33021,2.009971,10.433806,-0.027612,-0.163934,-0.153008,1.18125,-2.1,-69.543755
1782300451500,0.33021,2.009971,10.433806,-0.027612,-0.163934,-0.153008,1.14375,-1.81875,-68.475006
1782300451506,0.416351,1.708475,10.68266,-0.170554,-0.163934,-0.165836,1.14375,-1.81875,-68.475006
1782300451510,0.416351,1.708475,10.68266,-0.170554,-0.163934,-0.165836,0.35625,-1.06875,-68.006256
1782300451515,0.401994,1.462015,10.993726,-0.297004,-0.159047,-0.169501,0.35625,-1.06875,-68.006256
1782300451519,0.401994,1.462015,10.993726,-0.297004,-0.159047,-0.169501,0.31875,-2.23125,-70.443756
1782300451522,0.349352,1.198804,11.381364,-0.381914,-0.185925,-0.162171,0.31875,-2.23125,-70.443756
1782300451530,0.349352,1.198804,11.381364,-0.402072,-0.241514,-0.144456,-0.09375,-0.61875,-68.775002
1782300451531,0.327817,0.978664,11.71636,-0.402072,-0.241514,-0.144456,-0.09375,-0.61875,-68.775002
1782300451540,0.339781,0.835095,11.974784,-0.342207,-0.28855,-0.124297,0.54375,-0.16875,-70.125
1782300451549,0.337388,0.784846,12.010676,-0.187048,-0.281831,-0.100473,0.3375,-0.31875,-68.456253
1782300451557,0.27996,0.815953,11.398114,0.036529,-0.223799,-0.077871,0.3375,-0.31875,-68.456253
1782300451559,0.27996,0.815953,11.398114,0.036529,-0.223799,-0.077871,-0.4125,0.43125,-69.056252
1782300451565,0.212961,0.964308,10.553447,0.233838,-0.174319,-0.053437,-0.4125,0.43125,-69.056252
1782300451570,0.212961,0.964308,10.553447,0.233838,-0.174319,-0.053437,-0.975,-0.45,-69.675003
1782300451574,0.16989,1.07677,10.034205,0.34807,-0.141332,-0.030224,-0.975,-0.45,-69.675003
1782300451579,0.16989,1.07677,10.034205,0.34807,-0.141332,-0.030224,-2.1375,0.58125,-67.537506
1782300451583,0.179462,1.038485,9.840386,0.374337,-0.098571,-0.004568,-2.1375,0.58125,-67.537506
1782300451589,0.179462,1.038485,9.840386,0.374337,-0.098571,-0.004568,-2.1375,0.58125,-67.537506
1782300451591,0.117248,1.057628,9.524534,0.309585,-0.039317,0.024143,-2.1375,0.58125,-67.537506
1782300451600,0.177069,1.117448,9.120146,0.163589,-0.021602,0.053465,-1.725,-0.43125,-69.675003
1782300451609,0.177069,1.117448,9.120146,-0.014784,-0.065585,0.079732,-1.725,-0.43125,-69.675003
1782300451610,-0.107677,1.055235,9.024434,-0.014784,-0.065585,0.079732,-1.125,-0.6,-69.525002
1782300451617,0.009571,0.866202,9.471892,-0.151007,-0.126671,0.101112,-1.125,-0.6,-69.525002
1782300451618,0.009571,0.866202,9.471892,-0.151007,-0.126671,0.101112,-1.0125,-0.45,-68.606255
1782300451625,0.009571,0.866202,9.471892,-0.218813,-0.123617,0.109664,-1.0125,-0.45,-68.606255
1782300451626,0.071785,0.658026,10.122739,-0.218813,-0.123617,0.109664,-1.0125,-0.45,-68.606255
1782300451629,0.071785,0.658026,10.122739,-0.218813,-0.123617,0.109664,-0.50625,-1.2,-69.375
1782300451638,0.064606,0.57667,10.639589,-0.213315,-0.068639,0.124325,-0.50625,-1.2,-69.375
1782300451639,0.064606,0.57667,10.639589,-0.213315,-0.068639,0.124325,-2.08125,-0.15,-68.606255
1782300451642,0.0,0.538385,10.907585,-0.133903,0.005276,0.132877,-2.08125,-0.15,-68.606255
1782300451649,0.0,0.538385,10.907585,-0.133903,0.005276,0.132877,-3.2625,-1.3125,-68.475006
1782300451651,0.021535,0.323031,10.75923,-0.015395,0.079801,0.138375,-3.2625,-1.3125,-68.475006
1782300451659,0.021535,0.323031,10.75923,-0.015395,0.079801,0.138375,-1.96875,1.18125,-68.756256
1782300451660,0.035892,0.275175,10.397913,0.095172,0.122562,0.138375,-1.96875,1.18125,-68.756256
1782300451669,0.066999,0.366102,10.129918,0.17153,0.130503,0.137764,-2.3625,-0.13125,-69.375
1782300451676,0.09332,0.457029,9.876278,0.17153,0.130503,0.137764,-2.3625,-0.13125,-69.375
1782300451677,0.09332,0.457029,9.876278,0.208793,0.125616,0.139596,-2.3625,-0.13125,-69.375
1782300451678,0.09332,0.457029,9.876278,0.208793,0.125616,0.139596,-1.275,-1.48125,-68.925003
1782300451685,0.088534,0.480957,9.598712,0.211236,0.126838,0.143262,-1.275,-1.48125,-68.925003
1782300451689,0.088534,0.480957,9.598712,0.211236,0.126838,0.143262,-0.54375,-1.95,-67.875
1782300451694,0.122034,0.507278,9.258931,0.173973,0.129281,0.151814,-0.54375,-1.95,-67.875
1782300451699,0.122034,0.507278,9.258931,0.173973,0.129281,0.151814,-1.44375,-1.05,-68.475006
1782300451702,0.150748,0.519243,9.048362,0.103113,0.126838,0.167085,-1.44375,-1.05,-68.475006
1782300451708,0.150748,0.519243,9.048362,0.103113,0.126838,0.167085,-1.70625,-2.2125,-68.925003
1782300451712,0.148355,0.514457,8.995719,0.021257,0.112788,0.187244,-1.70625,-2.2125,-68.925003
1782300451720,0.239282,0.562313,9.091433,-0.044716,0.095684,0.210457,-1.2375,-1.48125,-69.693756
1782300451729,0.256032,0.571885,9.273287,-0.080146,0.101181,0.234281,-0.975,-0.15,-70.125
1782300451737,0.198604,0.555135,9.371393,-0.081979,0.130503,0.264213,-0.975,-0.15,-70.125
1782300451738,0.198604,0.555135,9.371393,-0.081979,0.130503,0.264213,-1.29375,-2.23125,-67.575005
1782300451745,0.100499,0.564706,9.380964,-0.050825,0.172653,0.296589,-1.29375,-2.23125,-67.575005
1782300451750,0.100499,0.564706,9.380964,-0.050825,0.172653,0.296589,-0.7125,-0.31875,-68.456253
1782300451754,-0.047856,0.59342,9.254144,0.002931,0.229463,0.331408,-0.7125,-0.31875,-68.456253
1782300451759,-0.047856,0.59342,9.254144,0.002931,0.229463,0.331408,-0.2625,0.28125,-68.90625
1782300451762,-0.205783,0.650848,9.041183,0.068294,0.266115,0.369893,-0.2625,0.28125,-68.90625
1782300451768,-0.205783,0.650848,9.041183,0.068294,0.266115,0.369893,-2.34375,-1.18125,-68.925003
1782300451771,-0.311067,0.713061,8.782758,0.134267,0.282608,0.411431,-2.34375,-1.18125,-68.925003
1782300451778,-0.311067,0.713061,8.782758,0.134267,0.282608,0.411431,-0.54375,-1.2,-68.15625
1782300451779,-0.342174,0.806381,8.574583,0.186191,0.310708,0.454192,-0.54375,-1.2,-68.15625
1782300451789,-0.413958,0.964308,8.368801,0.221621,0.354079,0.493287,-1.3125,-0.9,-68.15625
1782300451796,-0.39003,1.086342,8.08884,0.244223,0.397451,0.534826,-1.3125,-0.9,-68.15625
1782300451798,-0.39003,1.086342,8.08884,0.244223,0.397451,0.534826,0.91875,-0.4875,-67.556252
1782300451805,-0.294317,1.148555,7.849558,0.235671,0.421275,0.579419,0.91875,-0.4875,-67.556252
1782300451808,-0.294317,1.148555,7.849558,0.235671,0.421275,0.579419,-0.975,-1.48125,-68.625
1782300451814,-0.344566,1.239482,7.753845,0.190467,0.423107,0.614238,-0.975,-1.48125,-68.625
1782300451819,-0.344566,1.239482,7.753845,0.190467,0.423107,0.614238,-1.21875,-3.69375,-68.643753
1782300451822,-0.478565,1.330409,7.746666,0.120217,0.386455,0.653945,-1.21875,-3.69375,-68.643753
1782300451829,-0.478565,1.330409,7.746666,0.120217,0.386455,0.653945,0.75,-2.53125,-69.543755
1782300451831,-0.583849,1.325624,7.818451,0.035918,0.335753,0.698538,0.75,-2.53125,-69.543755
1782300451839,-0.583849,1.325624,7.818451,0.035918,0.335753,0.698538,0.50625,-1.21875,-67.856255
1782300451840,-0.66999,1.301695,8.002698,-0.027612,0.267337,0.740687,0.50625,-1.21875,-67.856255
1782300451849,-0.655633,1.299303,8.282659,-0.049603,0.217246,0.779783,0.675,-1.8,-68.025002
1782300451857,-0.631705,1.330409,8.517155,-0.036775,0.209915,0.818267,0.675,-1.8,-68.025002
1782300451859,-0.631705,1.330409,8.517155,-0.036775,0.209915,0.818267,-0.4125,-1.8,-67.256256
1782300451865,-0.569492,1.359123,8.677475,-0.001345,0.236793,0.858584,-0.4125,-1.8,-67.256256
1782300451868,-0.569492,1.359123,8.677475,-0.001345,0.236793,0.858584,1.9125,-2.11875,-68.475006
1782300451874,-0.519243,1.399801,8.655939,0.035307,0.266726,0.901956,1.9125,-2.11875,-68.475006
1782300451879,-0.519243,1.399801,8.655939,0.035307,0.266726,0.901956,1.44375,-3.15,-67.275002
1782300451882,-0.361316,1.490728,8.579369,0.057909,0.282608,0.948992,1.44375,-3.15,-67.275002
1782300451889,-0.361316,1.490728,8.579369,0.057909,0.282608,0.948992,2.30625,-3.01875,-66.056252
1782300451891,-0.339781,1.569692,8.603297,0.052411,0.291771,0.991142,2.30625,-3.01875,-66.056252
1782300451898,-0.339781,1.569692,8.603297,0.052411,0.291771,0.991142,2.2875,-2.2875,-66.356255
1782300451900,-0.351745,1.567299,8.672689,0.02309,0.300323,1.036957,2.2875,-2.2875,-66.356255
1782300451910,-0.385244,1.505085,8.833008,-0.012951,0.292382,1.078496,1.3875,-1.81875,-66.956253
1782300451917,-0.387637,1.45005,9.136897,-0.035553,0.274056,1.112704,1.3875,-1.81875,-66.956253
1782300451918,-0.387637,1.45005,9.136897,-0.035553,0.274056,1.112704,1.5375,-0.9375,-67.556252
1782300451925,-0.327817,1.397408,9.46232,-0.045938,0.281997,1.143247,1.5375,-0.9375,-67.556252
1782300451928,-0.327817,1.397408,9.46232,-0.045938,0.281997,1.143247,1.4625,-3.6,-67.275002
1782300451934,-0.270389,1.320838,9.677674,-0.04716,0.319871,1.165849,1.4625,-3.6,-67.275002
1782300451943,-0.270389,1.320838,9.677674,-0.041662,0.362632,1.186619,3.76875,-2.56875,-69.543755
1782300451944,-0.150748,1.28016,9.708781,-0.041662,0.362632,1.186619,3.76875,-2.56875,-69.543755
1782300451948,-0.150748,1.28016,9.708781,-0.041662,0.362632,1.186619,2.19375,-2.11875,-68.025002
1782300451952,-0.019143,1.284946,9.790137,-0.032499,0.39684,1.209832,2.19375,-2.11875,-68.025002
1782300451959,0.078963,1.299303,9.873886,-0.023336,0.418831,1.239153,2.7,-1.55625,-65.587502
1782300451969,0.078963,1.28016,9.969598,-0.005621,0.436546,1.275194,2.34375,-2.71875,-67.125
1782300451977,-0.035892,1.237089,10.003098,0.031031,0.437157,1.313679,2.34375,-2.71875,-67.125
1782300451978,-0.035892,1.237089,10.003098,0.031031,0.437157,1.313679,2.925,-1.3875,-68.006256
1782300451985,-0.157926,1.272982,10.041383,0.09395,0.429216,1.34972,2.925,-1.3875,-68.006256
1782300451988,-0.157926,1.272982,10.041383,0.09395,0.429216,1.34972,3.35625,-5.08125,-68.512505
1782300451994,-0.229711,1.318445,10.005491,0.159923,0.418831,1.384539,3.35625,-5.08125,-68.512505
1782300451999,-0.229711,1.318445,10.005491,0.159923,0.418831,1.384539,2.64375,-3.91875,-66.225006
1782300452002,-0.289532,1.351945,9.873886,0.217345,0.400505,1.416304,2.64375,-3.91875,-66.225006
1782300452008,-0.289532,1.351945,9.873886,0.217345,0.400505,1.416304,3.2625,-3.61875,-66.675003
1782300452011,-0.303888,1.428515,9.656139,0.23506,0.357745,1.447458,3.2625,-3.61875,-66.675003
1782300452018,-0.303888,1.428515,9.656139,0.23506,0.357745,1.447458,4.78125,-3.9375,-66.975006
1782300452020,-0.270389,1.514657,9.435999,0.213069,0.328423,1.479223,4.78125,-3.9375,-66.975006
1782300452029,-0.20339,1.59362,9.409678,0.165421,0.302767,1.51221,4.05,-4.65,-66.975006
1782300452037,-0.189033,1.634298,9.517355,0.112276,0.273445,1.542142,4.05,-4.65,-66.975006
1782300452038,-0.189033,1.634298,9.517355,0.112276,0.273445,1.542142,6.09375,-4.275,-66.975006
1782300452046,-0.167498,1.679762,9.586747,0.077457,0.244124,1.573907,6.09375,-4.275,-66.975006
1782300452049,-0.167498,1.679762,9.586747,0.077457,0.244124,1.573907,4.5,-4.0875,-69.393753
1782300452054,-0.205783,1.682154,9.627425,0.059742,0.216024,1.603839,4.5,-4.0875,-69.393753
1782300452059,-0.205783,1.682154,9.627425,0.059742,0.216024,1.603839,4.5,-4.0875,-69.393753
1782300452062,-0.29671,1.636691,9.677674,0.060352,0.183037,1.631939,4.5,-4.0875,-69.393753
1782300452068,-0.29671,1.636691,9.677674,0.060352,0.183037,1.631939,5.94375,-3.375,-68.175003
1782300452071,-0.339781,1.562513,9.785351,0.071348,0.150051,1.655763,5.94375,-3.375,-68.175003
1782300452078,-0.339781,1.562513,9.785351,0.071348,0.150051,1.655763,5.175,-4.125,-66.806252
1782300452080,-0.311067,1.514657,9.890635,0.08723,0.119507,1.675921,5.175,-4.125,-66.806252
1782300452090,-0.222533,1.48355,9.998313,0.11533,0.108512,1.692415,4.6125,-4.25625,-68.025002
1782300452097,-0.122034,1.5003,10.098811,0.139154,0.131725,1.707076,4.6125,-4.25625,-68.025002
1782300452098,-0.122034,1.5003,10.098811,0.139154,0.131725,1.707076,2.79375,-5.41875,-66.975006
1782300452105,-0.071785,1.507478,10.180167,0.15748,0.165322,1.710741,2.79375,-5.41875,-66.975006
1782300452108,-0.071785,1.507478,10.180167,0.15748,0.165322,1.710741,3.5625,-6.16875,-66.525002
1782300452114,-0.114855,1.533799,10.230417,0.161145,0.186092,1.705243,3.5625,-6.16875,-66.525002
1782300452119,-0.114855,1.533799,10.230417,0.161145,0.186092,1.705243,4.5375,-5.56875,-69.412506
1782300452122,-0.114855,1.533799,10.230417,0.161145,0.165322,1.69608,4.5375,-5.56875,-69.412506
1782300452123,-0.148355,1.562513,10.333308,0.161145,0.165322,1.69608,4.5375,-5.56875,-69.412506
1782300452128,-0.148355,1.562513,10.333308,0.161145,0.165322,1.69608,5.08125,-5.4375,-67.275002
1782300452132,-0.153141,1.615155,10.574983,0.16481,0.150661,1.689971,5.08125,-5.4375,-67.275002
1782300452139,-0.153141,1.615155,10.574983,0.16481,0.150661,1.689971,4.6125,-6.16875,-66.525002
1782300452144,-0.172283,1.852045,10.689838,0.184969,0.167766,1.687528,4.6125,-6.16875,-66.525002
1782300452149,-0.145962,2.182254,10.637196,0.232616,0.219078,1.685695,3.54375,-4.9875,-67.275002
1782300452159,-0.057428,2.574677,10.373986,0.296146,0.289939,1.678365,4.06875,-6.75,-67.743752
1782300452166,0.131605,2.708675,10.19931,0.341961,0.357134,1.663093,4.06875,-6.75,-67.743752
1782300452169,0.131605,2.708675,10.19931,0.341961,0.357134,1.663093,3.825,-8.0625,-67.912506
1782300452174,0.131605,2.708675,10.19931,0.325468,0.401727,1.65393,3.825,-8.0625,-67.912506
1782300452175,0.368495,2.553142,10.041383,0.325468,0.401727,1.65393,3.825,-8.0625,-67.912506
1782300452180,0.368495,2.553142,10.041383,0.325468,0.401727,1.65393,5.1375,-7.2,-67.762505
1782300452184,0.375673,2.117648,10.067705,0.217956,0.402949,1.630717,5.1375,-7.2,-67.762505
1782300452188,0.375673,2.117648,10.067705,0.217956,0.402949,1.630717,5.86875,-7.51875,-66.243752
1782300452193,0.191426,1.471586,10.711374,0.00904,0.382179,1.602007,5.86875,-7.51875,-66.243752
1782300452201,0.009571,0.87338,11.895821,-0.264628,0.391342,1.588568,5.30625,-8.38125,-67.162506
1782300452210,-0.267996,0.409173,12.965413,-0.53463,0.43899,1.5904,4.70625,-8.231251,-67.3125
1782300452218,-0.614955,-0.023928,13.458334,-0.706283,0.44632,1.620944,4.70625,-8.231251,-67.3125
1782300452219,-0.614955,-0.023928,13.458334,-0.706283,0.44632,1.620944,5.38125,-5.7375,-66.975006
1782300452226,-0.698704,-0.122034,13.508584,-0.701396,0.370573,1.675311,5.38125,-5.7375,-66.975006
1782300452229,-0.698704,-0.122034,13.508584,-0.701396,0.370573,1.675311,6.13125,-5.75625,-66.975006
1782300452235,-0.753739,-0.052642,14.05654,-0.495535,0.338808,1.723569,6.13125,-5.75625,-66.975006
1782300452240,-0.753739,-0.052642,14.05654,-0.495535,0.338808,1.723569,5.94375,-5.30625,-66.375
1782300452252,-0.753739,-0.052642,14.05654,-0.495535,0.338808,1.723569,6.65625,-7.96875,-67.012505
1782300452253,-0.717847,0.20339,11.888643,0.304698,0.609421,1.812755,6.65625,-7.96875,-67.012505
1782300452259,-0.717847,0.20339,11.888643,0.304698,0.609421,1.812755,5.26875,-7.65,-66.393753
1782300452260,-0.705883,0.394816,10.510376,0.57409,0.719377,1.846353,5.26875,-7.65,-66.393753
1782300452269,-0.705883,0.394816,10.510376,0.57409,0.719377,1.846353,6.05625,-8.1,-67.162506
1782300452270,-0.756132,0.634098,9.218253,0.673661,0.738924,1.869566,6.05625,-8.1,-67.162506
1782300452280,-0.997807,0.935594,8.754045,0.679769,0.625303,1.878728,6.075,-8.83125,-67.162506
1782300452286,-1.205983,1.103091,8.909578,0.635176,0.651571,1.8659,6.075,-8.83125,-67.162506
1782300452289,-1.205983,1.103091,8.909578,0.635176,0.651571,1.8659,8.00625,-7.9875,-66.543755
1782300452294,-1.205983,1.103091,8.909578,0.458025,0.651571,1.826194,8.00625,-7.9875,-66.543755
1782300452295,-1.665405,1.430908,8.253945,0.458025,0.651571,1.826194,8.00625,-7.9875,-66.543755
1782300452300,-1.665405,1.430908,8.253945,0.458025,0.651571,1.826194,7.725,-8.26875,-67.012505
1782300452303,-1.986043,1.811367,8.299408,0.160534,0.400505,1.812144,7.725,-8.26875,-67.012505
1782300452309,-1.986043,1.811367,8.299408,0.160534,0.400505,1.812144,8.475,-8.71875,-66.5625
1782300452312,-1.981257,1.76351,9.108182,-0.132681,0.207472,1.794429,8.475,-8.71875,-66.5625
1782300452319,-1.981257,1.76351,9.108182,-0.132681,0.207472,1.794429,7.81875,-7.40625,-66.09375
1782300452320,-1.758725,1.562513,9.747066,-0.279288,0.111566,1.757777,7.81875,-7.40625,-66.09375
1782300452330,-1.682154,1.536192,9.409678,-0.340375,0.073082,1.729678,7.85625,-10.650001,-64.293755
1782300452338,-1.689333,1.555335,8.598511,-0.422231,-0.060087,1.697913,7.85625,-10.650001,-64.293755
1782300452339,-1.689333,1.555335,8.598511,-0.422231,-0.060087,1.697913,7.425,-9.75,-65.493752
1782300452346,-1.399801,1.524228,8.230016,-0.550512,-0.2745,1.658206,7.425,-9.75,-65.493752
1782300452357,-1.18684,1.359123,8.636797,-0.64764,-0.438823,1.605061,7.89375,-9.900001,-66.112503
1782300452359,-1.18684,1.359123,8.636797,-0.64764,-0.438823,1.605061,6.3375,-7.66875,-66.84375
1782300452363,-1.040878,1.086342,9.656139,-0.603658,-0.464479,1.553138,6.3375,-7.66875,-66.84375
1782300452369,-1.040878,1.086342,9.656139,-0.603658,-0.464479,1.553138,5.68125,-7.36875,-65.625
1782300452372,-0.768096,0.997807,9.821244,-0.406348,-0.256174,1.497549,5.68125,-7.36875,-65.625
1782300452379,-0.768096,0.997807,9.821244,-0.406348,-0.256174,1.497549,5.94375,-6.6375,-65.025002
1782300452380,-0.646062,1.129412,9.017255,-0.240193,0.059643,1.431575,5.94375,-6.6375,-65.025002
1782300452390,-0.646062,1.129412,9.017255,-0.189491,0.138444,1.364991,5.94375,-6.6375,-65.025002
1782300452391,-0.547956,1.344766,8.081662,-0.189491,0.138444,1.364991,6.9,-6.7875,-66.225006
1782300452399,-0.354138,1.457229,8.167803,-0.250578,0.005276,1.324674,5.79375,-5.00625,-66.525002
1782300452406,-0.122034,1.454836,8.586547,-0.359923,-0.068639,1.296574,5.79375,-5.00625,-66.525002
1782300452408,-0.122034,1.454836,8.586547,-0.359923,-0.068639,1.296574,5.86875,-8.25,-65.943756
1782300452415,-0.222533,1.351945,8.986148,-0.437502,-0.04787,1.255646,5.86875,-8.25,-65.943756
1782300452419,-0.222533,1.351945,8.986148,-0.437502,-0.04787,1.255646,5.86875,-7.21875,-66.993752
1782300452424,-0.567099,1.210768,9.220645,-0.438724,0.068195,1.214719,5.86875,-7.21875,-66.993752
1782300452429,-0.567099,1.210768,9.220645,-0.438724,0.068195,1.214719,5.98125,-7.3875,-65.325005
1782300452432,-0.89013,1.174876,9.302002,-0.377638,0.186092,1.182343,5.98125,-7.3875,-65.325005
1782300452438,-0.89013,1.174876,9.302002,-0.377638,0.186092,1.182343,5.94375,-5.60625,-66.075005
1782300452440,-0.945165,1.172483,9.383358,-0.298225,0.247178,1.15913,5.94375,-5.60625,-66.075005
1782300452450,-0.885344,1.232304,9.500605,-0.215758,0.27711,1.137749,6.76875,-7.3875,-66.393753
1782300452460,-0.787239,1.287339,9.656139,-0.129627,0.307654,1.132863,6.1125,-6.20625,-65.925003
1782300452466,-0.55992,1.375873,9.541283,-0.043495,0.370573,1.139582,6.1125,-6.20625,-65.925003
1782300452468,-0.55992,1.375873,9.541283,-0.043495,0.370573,1.139582,6.3,-6.6375,-66.375
1782300452475,-0.361316,1.485943,9.280466,0.028587,0.433492,1.150578,6.3,-6.6375,-66.375
1782300452479,-0.361316,1.485943,9.280466,0.028587,0.433492,1.150578,5.7375,-7.36875,-67.143753
1782300452483,-0.397209,1.591227,9.060326,0.06585,0.478085,1.158519,5.7375,-7.36875,-67.143753
1782300452488,-0.397209,1.591227,9.060326,0.06585,0.478085,1.158519,7.3125,-6.225,-65.475006
1782300452492,-0.40678,1.734796,8.823436,0.059131,0.490913,1.167071,7.3125,-6.225,-65.475006
1782300452499,-0.40678,1.734796,8.823436,0.059131,0.490913,1.167071,7.4625,-6.65625,-65.325005
1782300452500,-0.311067,1.837688,8.74208,0.008429,0.459148,1.183564,7.4625,-6.65625,-65.325005
1782300452509,-0.210568,1.840081,8.821044,-0.08259,0.41822,1.189673,7.9875,-7.2375,-66.993752
1782300452519,-0.244068,1.727618,8.971792,-0.193767,0.38951,1.196393,7.36875,-7.2375,-66.543755
1782300452526,-0.263211,1.655833,9.211073,-0.295171,0.363242,1.20189,7.36875,-7.2375,-66.543755
1782300452528,-0.263211,1.655833,9.211073,-0.295171,0.363242,1.20189,7.36875,-7.2375,-66.543755
1782300452535,-0.344566,1.615155,9.452749,-0.364809,0.320482,1.203723,7.36875,-7.2375,-66.543755
1782300452540,-0.344566,1.615155,9.452749,-0.364809,0.320482,1.203723,8.3625,-6.825,-64.706253
1782300452543,-0.366102,1.557728,9.668103,-0.392909,0.27711,1.200058,8.3625,-6.825,-64.706253
1782300452549,-0.366102,1.557728,9.668103,-0.392909,0.27711,1.200058,7.78125,-7.10625,-65.325005
1782300452552,-0.385244,1.488336,9.888242,-0.378859,0.228241,1.18723,7.78125,-7.10625,-65.325005
1782300452559,-0.385244,1.488336,9.888242,-0.378859,0.228241,1.18723,8.775001,-7.9875,-66.993752
1782300452560,-0.428315,1.447658,10.091632,-0.333045,0.187313,1.167071,8.775001,-7.9875,-66.993752
1782300452569,-0.452243,1.426122,10.177774,-0.262184,0.153105,1.143247,8.25,-7.40625,-65.625
1782300452579,-0.425922,1.462015,10.079669,-0.262184,0.153105,1.143247,8.25,-7.40625,-65.625
1782300452580,-0.425922,1.462015,10.079669,-0.180939,0.137833,1.120034,7.36875,-7.9875,-65.943756
1782300452586,-0.425922,1.462015,10.079669,-0.102138,0.142109,1.092546,7.36875,-7.9875,-65.943756
1782300452587,-0.354138,1.507478,9.794922,-0.102138,0.142109,1.092546,7.36875,-7.9875,-65.943756
1782300452588,-0.354138,1.507478,9.794922,-0.102138,0.142109,1.092546,7.8,-7.10625,-65.625
1782300452595,-0.354138,1.507478,9.794922,-0.045327,0.168377,1.061391,7.8,-7.10625,-65.625
1782300452596,-0.29671,1.581656,9.517355,-0.045327,0.168377,1.061391,7.8,-7.10625,-65.625
1782300452600,-0.29671,1.581656,9.517355,-0.045327,0.168377,1.061391,9.431251,-6.54375,-65.175003
1782300452604,-0.208176,1.679762,9.330715,-0.020282,0.1922,1.027794,9.431251,-6.54375,-65.175003
1782300452609,-0.208176,1.679762,9.330715,-0.020282,0.1922,1.027794,6.76875,-6.6375,-66.84375
1782300452612,-0.09332,1.753939,9.227824,-0.028834,0.211137,0.994807,6.76875,-6.6375,-66.84375
1782300452619,-0.09332,1.753939,9.227824,-0.028834,0.211137,0.994807,7.4625,-6.375,-65.325005
1782300452621,0.035892,1.758725,9.141682,-0.064264,0.228241,0.963042,7.4625,-6.375,-65.325005
1782300452630,0.114855,1.706083,9.218253,-0.108246,0.245346,0.928834,7.65,-8.2875,-64.725006
1782300452639,0.11007,1.70369,9.440785,-0.135124,0.258174,0.893404,7.65,-8.2875,-64.725006
1782300452641,0.11007,1.70369,9.440785,-0.135124,0.258174,0.893404,8.2875,-7.40625,-66.393753
1782300452646,0.074178,1.715654,9.675281,-0.135735,0.258174,0.861639,8.2875,-7.40625,-66.393753
1782300452649,0.074178,1.715654,9.675281,-0.135735,0.258174,0.861639,8.475,-7.9875,-66.993752
1782300452655,0.062213,1.734796,9.732709,-0.109468,0.259395,0.831706,8.475,-7.9875,-66.993752
1782300452661,0.062213,1.734796,9.732709,-0.109468,0.259395,0.831706,7.93125,-6.225,-65.925003
1782300452663,0.062213,1.734796,9.732709,-0.069151,0.257563,0.807883,7.93125,-6.225,-65.925003
1782300452664,0.057428,1.739582,9.713566,-0.069151,0.257563,0.807883,7.93125,-6.225,-65.925003
1782300452669,0.057428,1.739582,9.713566,-0.069151,0.257563,0.807883,10.200001,-6.54375,-65.925003
1782300452672,0.028714,1.844866,9.589139,-0.019671,0.264282,0.787113,10.200001,-6.54375,-65.925003
1782300452679,0.028714,1.844866,9.589139,-0.019671,0.264282,0.787113,9.900001,-7.275,-65.475006
1782300452681,0.028714,1.844866,9.589139,0.027366,0.270391,0.768176,9.900001,-7.275,-65.475006
1782300452682,0.019143,1.957329,9.38575,0.027366,0.270391,0.768176,9.900001,-7.275,-65.475006
1782300452690,0.057428,2.050649,9.120146,0.057909,0.272834,0.74985,9.150001,-7.275,-65.475006
1782300452700,0.069392,2.148755,8.921543,0.064018,0.265504,0.730303,10.368751,-8.175,-65.025002
1782300452708,0.059821,2.218147,8.732509,0.042026,0.253898,0.710144,10.368751,-8.175,-65.025002
1782300452709,0.059821,2.218147,8.732509,0.042026,0.253898,0.710144,10.06875,-8.175,-65.025002
1782300452717,0.019143,2.26361,8.689438,-0.000734,0.239237,0.690597,10.06875,-8.175,-65.025002
1782300452720,0.019143,2.26361,8.689438,-0.000734,0.239237,0.690597,9.6,-7.425,-65.025002
1782300452725,0.004786,2.301895,8.739687,-0.055712,0.230074,0.671049,9.6,-7.425,-65.025002
1782300452729,0.004786,2.301895,8.739687,-0.055712,0.230074,0.671049,9.525001,-8.7375,-65.943756
1782300452734,0.069392,2.237289,8.80908,-0.108857,0.2203,0.651501,9.525001,-8.7375,-65.943756
1782300452739,0.069392,2.237289,8.80908,-0.108857,0.2203,0.651501,8.25,-7.40625,-65.625
1782300452742,-0.007178,2.335395,8.97897,-0.156505,0.222133,0.627067,8.25,-7.40625,-65.625
1782300452750,0.011964,2.383251,9.127326,-0.18888,0.205639,0.602632,9.3,-7.425,-65.325005
1782300452759,0.011964,2.383251,9.127326,-0.207206,0.175707,0.58003,9.3,-7.425,-65.325005
1782300452760,-0.007178,2.368894,9.292429,-0.207206,0.175707,0.58003,10.275001,-8.306251,-66.243752
1782300452778,-0.035892,2.371287,9.543676,-0.212704,0.104236,0.538491,9.65625,-7.70625,-66.393753
1782300452783,-0.035892,2.371287,9.543676,-0.212704,0.104236,0.538491,10.3125,-7.44375,-63.806252
1782300452800,-0.028714,2.39043,9.677674,-0.166278,0.040095,0.498785,9.150001,-7.275,-65.475006
1782300452801,-0.01675,2.411965,9.615461,-0.141233,0.039484,0.486568,9.150001,-7.275,-65.475006
1782300452808,-0.01675,2.411965,9.615461,-0.141233,0.039484,0.486568,10.06875,-7.425,-65.625
1782300452809,-0.026321,2.416751,9.531712,-0.12535,0.049258,0.476183,10.06875,-7.425,-65.625
1782300452819,-0.026321,2.416751,9.531712,-0.116798,0.069416,0.468242,9.262501,-7.425,-63.806252
1782300452820,-0.066999,2.438286,9.412071,-0.116798,0.069416,0.468242,9.262501,-7.425,-63.806252
1782300452827,-0.057428,2.414358,9.354643,-0.115577,0.08591,0.456635,9.262501,-7.425,-63.806252
1782300452829,-0.057428,2.414358,9.354643,-0.115577,0.08591,0.456635,7.66875,-8.2875,-65.493752
1782300452836,-0.026321,2.423929,9.4025,-0.118631,0.098127,0.441975,7.66875,-8.2875,-65.493752
1782300452839,-0.026321,2.423929,9.4025,-0.118631,0.098127,0.441975,8.981251,-6.675,-65.625
1782300452844,-0.098106,2.423929,9.481463,-0.116798,0.103014,0.425481,8.981251,-6.675,-65.625
1782300452850,-0.098106,2.423929,9.481463,-0.116798,0.103014,0.425481,10.35,-7.44375,-65.025002
1782300452853,-0.198604,2.402394,9.536498,-0.108246,0.095684,0.407155,10.35,-7.44375,-65.025002
1782300452859,-0.198604,2.402394,9.536498,-0.108246,0.095684,0.407155,10.5,-7.29375,-65.175003
1782300452861,-0.265603,2.366502,9.546069,-0.08992,0.077358,0.386997,10.5,-7.29375,-65.175003
1782300452875,-0.320638,2.385644,9.529319,-0.066707,0.063919,0.368671,9.39375,-6.54375,-64.40625
1782300452880,-0.325424,2.395216,9.524534,-0.036164,0.057199,0.352788,9.450001,-7.575,-65.175003
1782300452887,-0.323031,2.395216,9.49582,-0.002567,0.061475,0.341793,9.450001,-7.575,-65.175003
1782300452889,-0.323031,2.395216,9.49582,-0.002567,0.061475,0.341793,9.993751,-6.4125,-64.556252
1782300452895,-0.323031,2.395216,9.49582,0.032863,0.076136,0.332019,9.993751,-6.4125,-64.556252
1782300452896,-0.349352,2.440679,9.493427,0.032863,0.076136,0.332019,9.993751,-6.4125,-64.556252
1782300452899,-0.349352,2.440679,9.493427,0.032863,0.076136,0.332019,10.462501,-6.5625,-64.706253
1782300452904,-0.370888,2.498107,9.447963,0.067683,0.082245,0.319802,10.462501,-6.5625,-64.706253
1782300452909,-0.370888,2.498107,9.447963,0.067683,0.082245,0.319802,10.9125,-6.2625,-64.706253
1782300452912,-0.346959,2.512464,9.380964,0.100059,0.088353,0.308806,10.9125,-6.2625,-64.706253
1782300452918,-0.346959,2.512464,9.380964,0.100059,0.088353,0.308806,11.56875,-7.44375,-65.025002
1782300452921,-0.272782,2.529213,9.34268,0.121439,0.087132,0.298421,11.56875,-7.44375,-65.025002
1782300452928,-0.272782,2.529213,9.34268,0.121439,0.087132,0.298421,9.20625,-7.14375,-62.437504
1782300452929,-0.212961,2.555535,9.383358,0.126937,0.072471,0.287426,9.20625,-7.14375,-62.437504
1782300452940,-0.155533,2.605784,9.428821,0.12938,0.060864,0.278874,11.55,-5.9625,-66.375
1782300452947,-0.165105,2.684747,9.51257,0.132434,0.057199,0.274598,11.55,-5.9625,-66.375
1782300452948,-0.165105,2.684747,9.51257,0.132434,0.057199,0.274598,8.962501,-7.125,-64.575005
1782300452955,-0.229711,2.770889,9.596319,0.142819,0.055977,0.2691,8.962501,-7.125,-64.575005
1782300452958,-0.229711,2.770889,9.596319,0.142819,0.055977,0.2691,10.33125,-7.44375,-64.256256
1782300452964,-0.246461,2.809174,9.680068,0.159923,0.072471,0.263602,10.33125,-7.44375,-64.256256
1782300452969,-0.246461,2.809174,9.680068,0.159923,0.072471,0.263602,10.5,-7.59375,-64.725006
1782300452973,-0.260818,2.833102,9.787744,0.172141,0.090186,0.26238,10.5,-7.59375,-64.725006
1782300452979,-0.260818,2.833102,9.787744,0.172141,0.090186,0.26238,12.150001,-7.1625,-64.575005
1782300452981,-0.27996,2.842673,9.967206,0.175806,0.11401,0.262991,12.150001,-7.1625,-64.575005
1782300452988,-0.27996,2.842673,9.967206,0.175806,0.11401,0.262991,12.150001,-7.1625,-64.575005
1782300452989,-0.311067,2.835495,10.13231,0.169086,0.13539,0.261159,12.150001,-7.1625,-64.575005
1782300452999,-0.311067,2.835495,10.13231,0.145873,0.125616,0.259937,12.150001,-7.1625,-64.575005
1782300453000,-0.416351,2.792424,10.438592,0.145873,0.125616,0.259937,11.7375,-8.34375,-65.175003
1782300453007,-0.504886,2.775674,10.737694,0.110443,0.111566,0.263602,11.7375,-8.34375,-65.175003
1782300453008,-0.504886,2.775674,10.737694,0.110443,0.111566,0.263602,11.7375,-8.34375,-65.175003
1782300453016,-0.588634,2.744568,11.067904,0.078678,0.093851,0.270932,11.7375,-8.34375,-65.175003
1782300453019,-0.588634,2.744568,11.067904,0.078678,0.093851,0.270932,10.05,-8.475,-63.825001
1782300453024,-0.705883,2.785246,11.381364,0.073181,0.068195,0.273376,10.05,-8.475,-63.825001
1782300453029,-0.705883,2.785246,11.381364,0.073181,0.068195,0.273376,10.181251,-7.59375,-64.425003
1782300453032,-0.744168,2.691926,11.723538,0.10128,0.046814,0.270322,10.181251,-7.59375,-64.425003
1782300453038,-0.744168,2.691926,11.723538,0.10128,0.046814,0.270322,11.887501,-8.493751,-64.575005
1782300453041,-0.674776,2.632105,11.88625,0.152593,0.051091,0.2691,11.887501,-8.493751,-64.575005
1782300453049,-0.59342,2.615355,11.900607,0.217956,0.077969,0.26238,10.81875,-8.475,-64.275002
1782300453059,-0.59342,2.615355,11.900607,0.279653,0.104847,0.254439,10.81875,-8.475,-64.275002
1782300453060,-0.509671,2.600998,11.785751,0.279653,0.104847,0.254439,11.325001,-9.356251,-65.493752
1782300453067,-0.433101,2.572284,11.625432,0.327911,0.126838,0.241,11.325001,-9.356251,-65.493752
1782300453068,-0.433101,2.572284,11.625432,0.327911,0.126838,0.241,11.118751,-8.19375,-64.575005
1782300453076,-0.351745,2.567499,11.41247,0.349902,0.136001,0.226339,11.118751,-8.19375,-64.575005
1782300453078,-0.351745,2.567499,11.41247,0.349902,0.136001,0.226339,12.0,-8.3625,-63.675003
1782300453084,-0.37328,2.522035,11.189938,0.345015,0.143942,0.2129,12.0,-8.3625,-63.675003
1782300453089,-0.37328,2.522035,11.189938,0.345015,0.143942,0.2129,12.618751,-9.243751,-63.525002
1782300453094,-0.260818,2.598605,10.967406,0.316916,0.146996,0.195796,12.618751,-9.243751,-63.525002
1782300453098,-0.260818,2.598605,10.967406,0.316916,0.146996,0.195796,12.0375,-9.39375,-63.675003
1782300453101,-0.282353,2.596213,10.766408,0.271712,0.150051,0.16342,12.0375,-9.39375,-63.675003
1782300453108,-0.282353,2.596213,10.766408,0.271712,0.150051,0.16342,12.712501,-11.00625,-64.293755
1782300453110,-0.241675,2.48375,10.594125,0.205738,0.134779,0.129212,12.712501,-11.00625,-64.293755
1782300453119,-0.038285,2.325824,10.527126,0.117774,0.117675,0.087673,13.012501,-11.45625,-64.3125
1782300453127,0.019143,2.237289,10.596518,0.008429,0.041317,0.030863,13.012501,-11.45625,-64.3125
1782300453128,0.019143,2.237289,10.596518,0.008429,0.041317,0.030863,12.975,-10.275001,-63.843754
1782300453136,-0.014357,1.87358,10.986548,-0.105803,-0.052757,-0.023504,12.975,-10.275001,-63.843754
1782300453139,-0.014357,1.87358,10.986548,-0.105803,-0.052757,-0.023504,14.343751,-10.14375,-64.143753
1782300453144,0.071785,1.531407,11.343079,-0.2237,-0.121173,-0.057102,14.343751,-10.14375,-64.143753
1782300453149,0.071785,1.531407,11.343079,-0.2237,-0.121173,-0.057102,11.887501,-9.975,-63.525002
1782300453153,0.105284,1.289731,11.611075,-0.312886,-0.190201,-0.086423,11.887501,-9.975,-63.525002
1782300453159,0.105284,1.289731,11.611075,-0.312886,-0.190201,-0.086423,13.837501,-9.8625,-62.925003
1782300453161,0.22014,0.973879,11.943677,-0.353814,-0.232962,-0.104749,13.837501,-9.8625,-62.925003
1782300453169,0.22014,0.973879,11.943677,-0.353814,-0.232962,-0.104749,11.25,-8.793751,-63.375004
1782300453170,0.311067,0.710668,12.130317,-0.349538,-0.215857,-0.11208,11.25,-8.793751,-63.375004
1782300453180,0.342174,0.468993,12.216459,-0.285397,-0.152938,-0.110247,12.50625,-9.825001,-64.143753
1782300453187,0.378066,0.27996,12.051354,-0.157726,-0.063141,-0.101084,12.50625,-9.825001,-64.143753
1782300453189,0.378066,0.27996,12.051354,-0.157726,-0.063141,-0.101084,13.35,-8.962501,-62.756252
1782300453196,0.399601,0.212961,11.544076,0.00232,0.038873,-0.090089,13.35,-8.962501,-62.756252
1782300453199,0.399601,0.212961,11.544076,0.00232,0.038873,-0.090089,12.637501,-8.94375,-64.275002
1782300453204,0.385244,0.232104,11.039191,0.14343,0.092018,-0.07665,12.637501,-8.94375,-64.275002
1782300453209,0.385244,0.232104,11.039191,0.14343,0.092018,-0.07665,13.5375,-9.4125,-63.375004
1782300453213,0.363709,0.380459,10.584554,0.254607,0.112177,-0.063821,13.5375,-9.4125,-63.375004
1782300453219,0.363709,0.380459,10.584554,0.254607,0.112177,-0.063821,12.937501,-9.993751,-63.075001
1782300453221,0.346959,0.581456,10.079669,0.344405,0.121951,-0.05588,12.937501,-9.993751,-63.075001
1782300453228,0.346959,0.581456,10.079669,0.344405,0.121951,-0.05588,13.200001,-9.1125,-62.906254
1782300453230,0.349352,0.756132,9.452749,0.410378,0.142109,-0.054659,13.200001,-9.1125,-62.906254
1782300453240,0.33021,0.909273,8.818651,0.445197,0.14944,-0.0626,13.25625,-10.575001,-62.925003
1782300453247,0.284746,1.07677,8.177374,0.448252,0.150051,-0.071763,13.25625,-10.575001,-62.925003
1782300453249,0.284746,1.07677,8.177374,0.448252,0.150051,-0.071763,13.856251,-10.59375,-62.925003
1782300453256,0.244068,1.208375,7.576776,0.410378,0.13539,-0.080926,13.856251,-10.59375,-62.925003
1782300453258,0.244068,1.208375,7.576776,0.410378,0.13539,-0.080926,13.425,-10.293751,-63.843754
1782300453264,0.244068,1.208375,7.576776,0.319359,0.081634,-0.085202,13.425,-10.293751,-63.843754
1782300453265,0.205783,1.284946,7.052748,0.319359,0.081634,-0.085202,13.425,-10.293751,-63.843754
1782300453269,0.205783,1.284946,7.052748,0.319359,0.081634,-0.085202,13.387501,-10.743751,-62.475002
1782300453273,0.212961,1.426122,6.887643,0.173362,0.009552,-0.085813,13.387501,-10.743751,-62.475002
1782300453279,0.212961,1.426122,6.887643,0.173362,0.009552,-0.085813,14.606251,-10.1625,-62.925003
1782300453284,0.272782,1.265803,7.253745,0.009651,-0.014883,-0.08398,14.606251,-10.1625,-62.925003
1782300453288,0.272782,1.265803,7.253745,0.009651,-0.014883,-0.08398,13.44375,-11.475,-63.093754
1782300453290,0.337388,1.22034,7.533705,-0.13207,0.004054,-0.073595,13.44375,-11.475,-63.093754
1782300453300,0.356531,1.028914,7.830415,-0.235306,0.046204,-0.068708,13.81875,-10.59375,-61.875004
1782300453307,0.473779,0.811167,7.916557,-0.314719,0.090797,-0.061378,13.81875,-10.59375,-61.875004
1782300453308,0.473779,0.811167,7.916557,-0.314719,0.090797,-0.061378,13.312501,-13.087501,-62.193752
1782300453316,0.533599,0.512064,8.052948,-0.378249,0.10729,-0.061378,13.312501,-13.087501,-62.193752
1782300453318,0.533599,0.512064,8.052948,-0.378249,0.10729,-0.061378,14.2875,-9.8625,-62.925003
1782300453325,0.512064,0.241675,8.349658,-0.426507,0.099349,-0.068708,14.2875,-9.8625,-62.925003
1782300453329,0.512064,0.241675,8.349658,-0.426507,0.099349,-0.068708,14.118751,-10.012501,-62.475002
1782300453333,0.512064,0.241675,8.349658,-0.464991,0.092018,-0.073595,14.118751,-10.012501,-62.475002
1782300453334,0.409173,0.052642,8.830616,-0.464991,0.092018,-0.073595,14.118751,-10.012501,-62.475002
1782300453339,0.409173,0.052642,8.830616,-0.464991,0.092018,-0.073595,13.406251,-9.993751,-63.525002
1782300453342,0.299103,-0.055035,9.230217,-0.501643,0.087742,-0.06993,13.406251,-9.993751,-63.525002
1782300453349,0.299103,-0.055035,9.230217,-0.501643,0.087742,-0.06993,13.762501,-8.83125,-61.537502
1782300453351,0.236889,-0.117248,9.47907,-0.537073,0.073693,-0.056491,13.762501,-8.83125,-61.537502
1782300453360,0.236889,-0.117248,9.47907,-0.561508,0.037651,-0.037554,14.55,-8.83125,-62.606251
1782300453361,0.20339,-0.112463,9.60589,-0.561508,0.037651,-0.037554,14.55,-8.83125,-62.606251
1782300453367,0.20339,-0.112463,9.60589,-0.557843,-0.003887,-0.016785,14.55,-8.83125,-62.606251
1782300453368,0.205783,-0.062213,9.711174,-0.557843,-0.003887,-0.016785,14.55,-8.83125,-62.606251
1782300453369,0.205783,-0.062213,9.711174,-0.557843,-0.003887,-0.016785,14.231251,-8.83125,-62.156254
1782300453377,0.212961,0.028714,9.900207,-0.513861,-0.022824,0.003985,14.231251,-8.83125,-62.156254
1782300453379,0.212961,0.028714,9.900207,-0.513861,-0.022824,0.003985,15.262501,-7.66875,-62.606251
1782300453393,0.210568,0.18664,9.988741,-0.423453,0.004054,0.025976,14.38125,-8.25,-62.756252
1782300453394,0.174676,0.351745,9.861922,-0.300058,0.062697,0.044302,14.38125,-8.25,-62.756252
1782300453399,0.174676,0.351745,9.861922,-0.300058,0.062697,0.044302,14.512501,-8.1,-62.137501
1782300453402,0.088534,0.485743,9.536498,-0.161392,0.132336,0.060184,14.512501,-8.1,-62.137501
1782300453408,0.088534,0.485743,9.536498,-0.161392,0.132336,0.060184,14.175,-8.1,-61.087502
1782300453410,0.088534,0.485743,9.536498,-0.036775,0.186092,0.068125,14.175,-8.1,-61.087502
1782300453411,-0.01675,0.68674,9.254144,-0.036775,0.186092,0.068125,14.175,-8.1,-61.087502
1782300453420,-0.114855,0.930808,9.022041,0.060352,0.21297,0.074845,15.0375,-6.7875,-60.918751
1782300453428,-0.200997,1.134198,8.833008,0.124493,0.230685,0.077288,15.0375,-6.7875,-60.918751
1782300453429,-0.200997,1.134198,8.833008,0.124493,0.230685,0.077288,14.512501,-8.1,-62.137501
1782300453437,-0.229711,1.316052,8.524334,0.15015,0.242291,0.079121,14.512501,-8.1,-62.137501
1782300453439,-0.229711,1.316052,8.524334,0.15015,0.242291,0.079121,15.993751,-7.3875,-62.137501
1782300453445,-0.256032,1.471586,8.091233,0.12938,0.216024,0.077899,15.993751,-7.3875,-62.137501
1782300453450,-0.256032,1.471586,8.091233,0.12938,0.216024,0.077899,15.993751,-7.3875,-62.137501
1782300453454,-0.318245,1.615155,7.782559,0.060963,0.137222,0.077288,15.993751,-7.3875,-62.137501
1782300453459,-0.318245,1.615155,7.782559,0.060963,0.137222,0.077288,13.44375,-7.65,-62.137501
1782300453462,-0.356531,1.730011,7.851951,-0.036775,0.032154,0.079121,13.44375,-7.65,-62.137501
1782300453469,-0.356531,1.730011,7.851951,-0.036775,0.032154,0.079121,16.575001,-7.5375,-61.237503
1782300453471,-0.356531,1.74676,8.189338,-0.121074,-0.025268,0.087673,16.575001,-7.5375,-61.237503
1782300453480,-0.356531,1.74676,8.189338,-0.161392,-0.03382,0.101112,16.575001,-7.5375,-61.237503
1782300453481,-0.318245,1.720439,8.442977,-0.161392,-0.03382,0.101112,15.8625,-7.81875,-62.437504
1782300453493,-0.272782,1.682154,8.603297,-0.162002,-0.006942,0.115773,15.39375,-7.81875,-61.987503
1782300453496,-0.270389,1.677369,8.801901,-0.130848,0.03643,0.131044,15.39375,-7.81875,-61.987503
1782300453499,-0.270389,1.677369,8.801901,-0.130848,0.03643,0.131044,16.012501,-8.118751,-61.837502
1782300453505,-0.253639,1.722832,8.976577,-0.071594,0.065751,0.14937,16.012501,-8.118751,-61.837502
1782300453510,-0.253639,1.722832,8.976577,-0.071594,0.065751,0.14937,15.993751,-8.118751,-61.537502
1782300453513,-0.22014,1.794617,9.098611,0.001099,0.101181,0.165864,15.993751,-8.118751,-61.537502
1782300453519,-0.22014,1.794617,9.098611,0.001099,0.101181,0.165864,15.69375,-8.118751,-61.537502
1782300453523,-0.18664,1.899901,9.091433,0.076846,0.141498,0.181135,15.69375,-8.118751,-61.537502
1782300453529,-0.18664,1.899901,9.091433,0.076846,0.141498,0.181135,16.837502,-6.825,-60.918751
1782300453531,-0.124427,1.998007,9.022041,0.14343,0.17082,0.19152,16.837502,-6.825,-60.918751
1782300453540,-0.083749,2.050649,8.900007,0.184969,0.191589,0.194574,15.356251,-7.8375,-60.618752
1782300453549,-0.023928,2.108077,8.813865,0.186801,0.164711,0.193353,16.893751,-7.8375,-61.687504
1782300453556,0.019143,2.134398,8.859329,0.155647,0.120729,0.188466,16.893751,-7.8375,-61.687504
1782300453558,0.019143,2.134398,8.859329,0.155647,0.120729,0.188466,16.106251,-6.80625,-61.218754
1782300453565,0.059821,2.105684,9.060326,0.092117,0.04376,0.182968,16.106251,-6.80625,-61.218754
1782300453569,0.059821,2.105684,9.060326,0.092117,0.04376,0.182968,15.8625,-9.75,-60.637501
1782300453574,0.138784,2.031507,9.380964,0.013927,-0.011829,0.178692,15.8625,-9.75,-60.637501
1782300453579,0.138784,2.031507,9.380964,0.013927,-0.011829,0.178692,14.475,-9.150001,-60.337502
1782300453582,0.191426,1.926222,9.694424,-0.048382,-0.046037,0.173194,14.475,-9.150001,-60.337502
1782300453589,0.191426,1.926222,9.694424,-0.048382,-0.046037,0.173194,14.793751,-8.55,-60.937504
1782300453600,0.320638,1.818545,10.141881,-0.050214,-0.064363,0.165864,17.081251,-8.4375,-61.837502
1782300453609,0.394816,1.806581,10.326129,0.013316,-0.052146,0.16342,15.825001,-8.26875,-60.937504
1782300453616,0.492921,1.830509,10.388342,0.114109,-0.023435,0.159144,15.825001,-8.26875,-60.937504
1782300453619,0.492921,1.830509,10.388342,0.114109,-0.023435,0.159144,16.59375,-8.587501,-60.637501
1782300453625,0.492921,1.830509,10.388342,0.230784,0.012606,0.152425,16.59375,-8.587501,-60.637501
1782300453626,0.550349,1.859223,10.271094,0.230784,0.012606,0.152425,16.59375,-8.587501,-60.637501
1782300453629,0.550349,1.859223,10.271094,0.230784,0.012606,0.152425,16.743752,-9.1875,-60.037502
1782300453634,0.550349,1.859223,10.271094,0.33402,0.047425,0.146316,16.743752,-9.1875,-60.037502
1782300453635,0.497707,1.931008,10.050954,0.33402,0.047425,0.146316,16.743752,-9.1875,-60.037502
1782300453640,0.497707,1.931008,10.050954,0.33402,0.047425,0.146316,16.35,-9.150001,-62.156254
1782300453643,0.435494,2.043471,9.859529,0.403048,0.080412,0.146927,16.35,-9.150001,-62.156254
1782300453650,0.435494,2.043471,9.859529,0.403048,0.080412,0.146927,16.125,-9.76875,-59.437504
1782300453651,0.401994,2.120041,9.687246,0.432369,0.095073,0.148149,16.125,-9.76875,-59.437504
1782300453660,0.318245,2.227718,9.526927,0.423817,0.071249,0.147538,17.71875,-10.06875,-61.256252
1782300453669,0.318245,2.227718,9.526927,0.3835,0.024212,0.149981,17.1,-10.200001,-61.106251
1782300453670,0.248854,2.301895,9.409678,0.3835,0.024212,0.149981,17.1,-10.200001,-61.106251
1782300453677,0.267996,2.313859,9.397714,0.321803,-0.030765,0.155479,17.1,-10.200001,-61.106251
1782300453679,0.267996,2.313859,9.397714,0.321803,-0.030765,0.155479,17.38125,-10.06875,-60.187504
1782300453685,0.267996,2.313859,9.397714,0.257662,-0.075359,0.159755,17.38125,-10.06875,-60.187504
1782300453686,0.323031,2.309074,9.546069,0.257662,-0.075359,0.159755,17.38125,-10.06875,-60.187504
1782300453704,0.303888,2.242075,10.122739,0.179471,-0.085132,0.174416,17.700001,-10.06875,-60.656254
1782300453709,0.303888,2.242075,10.122739,0.179471,-0.085132,0.174416,17.081251,-9.918751,-60.337502
1782300453711,0.277567,2.15354,10.395521,0.170308,-0.057643,0.185411,17.081251,-9.918751,-60.337502
1782300453720,0.229711,2.031507,10.701803,0.179471,-0.029544,0.194574,16.668751,-11.08125,-60.656254
1782300453729,0.138784,1.986043,11.065511,0.203906,-0.006331,0.204348,16.668751,-11.08125,-60.656254
1782300453730,0.138784,1.986043,11.065511,0.203906,-0.006331,0.204348,16.987501,-12.281251,-60.206253
1782300453737,0.035892,2.038685,11.331114,0.244223,0.003443,0.211679,16.987501,-12.281251,-60.206253
1782300453738,0.035892,2.038685,11.331114,0.244223,0.003443,0.211679,17.587502,-11.981251,-60.056252
1782300453746,-0.081356,2.148755,11.450756,0.305309,-0.006942,0.21962,17.587502,-11.981251,-60.056252
1782300453750,-0.081356,2.148755,11.450756,0.305309,-0.006942,0.21962,17.56875,-12.431251,-59.006252
1782300453754,-0.165105,2.268396,11.493826,0.378002,-0.030155,0.22695,17.56875,-12.431251,-59.006252
1782300453759,-0.165105,2.268396,11.493826,0.378002,-0.030155,0.22695,16.650002,-10.35,-60.656254
1782300453763,-0.141177,2.364109,11.38615,0.448252,-0.043594,0.232448,16.650002,-10.35,-60.656254
1782300453769,-0.141177,2.364109,11.38615,0.448252,-0.043594,0.232448,18.487501,-11.85,-60.206253
1782300453771,-0.122034,2.438286,11.288044,0.500786,-0.054589,0.235502,18.487501,-11.85,-60.206253
1782300453780,-0.122034,2.438286,11.288044,0.518501,-0.058865,0.240389,17.550001,-11.700001,-59.306252
1782300453781,-0.150748,2.550749,11.156438,0.518501,-0.058865,0.240389,17.550001,-11.700001,-59.306252
1782300453794,-0.267996,2.706282,10.988941,0.49651,-0.070472,0.244665,16.893751,-13.14375,-61.125004
1782300453797,-0.267996,2.706282,10.988941,0.429926,-0.11873,0.24772,16.893751,-13.14375,-61.125004
1782300453798,-0.413958,2.799603,10.55584,0.429926,-0.11873,0.24772,16.893751,-13.14375,-61.125004
1782300453805,-0.413958,2.799603,10.55584,0.429926,-0.11873,0.24772,17.418751,-12.281251,-59.456253
1782300453806,-0.430708,2.770889,10.632411,0.308974,-0.220133,0.24833,17.418751,-12.281251,-59.456253
1782300453810,-0.430708,2.770889,10.632411,0.308974,-0.220133,0.24833,17.53125,-14.043751,-60.993752
1782300453814,-0.358923,2.507678,10.950655,0.18558,-0.240903,0.244054,17.53125,-14.043751,-60.993752
1782300453820,-0.358923,2.507678,10.950655,0.18558,-0.240903,0.244054,15.937501,-12.562501,-60.225002
1782300453822,-0.323031,2.096113,11.003298,0.084787,-0.234794,0.236113,15.937501,-12.562501,-60.225002
1782300453829,-0.323031,2.096113,11.003298,0.084787,-0.234794,0.236113,18.50625,-12.88125,-59.925003
1782300453831,-0.301496,1.777867,11.139689,-0.02578,-0.218912,0.229394,18.50625,-12.88125,-59.925003
1782300453839,-0.236889,1.488336,11.38615,-0.146731,-0.231129,0.221452,17.025002,-13.593751,-59.925003
1782300453850,-0.162712,1.155733,11.752251,-0.256076,-0.275722,0.209235,15.806251,-13.44375,-60.075001
1782300453857,-0.014357,0.825524,12.060926,-0.333655,-0.319094,0.200072,15.806251,-13.44375,-60.075001
1782300453859,-0.014357,0.825524,12.060926,-0.333655,-0.319094,0.200072,17.643751,-13.762501,-60.375004
1782300453866,0.069392,0.579063,12.175781,-0.355647,-0.364908,0.193353,17.643751,-13.762501,-60.375004
1782300453868,0.069392,0.579063,12.175781,-0.355647,-0.364908,0.193353,17.456251,-12.8625,-59.925003
1782300453874,0.069392,0.579063,12.175781,-0.307388,-0.382013,0.1848,17.456251,-12.8625,-59.925003
1782300453875,0.172283,0.440279,12.226031,-0.307388,-0.382013,0.1848,17.456251,-12.8625,-59.925003
1782300453879,0.172283,0.440279,12.226031,-0.307388,-0.382013,0.1848,15.000001,-11.6625,-60.056252
1782300453883,0.241675,0.435494,12.170995,-0.178496,-0.343528,0.17747,15.000001,-11.6625,-60.056252
1782300453889,0.241675,0.435494,12.170995,-0.178496,-0.343528,0.17747,17.475,-13.312501,-59.925003
1782300453891,0.291924,0.531207,11.635004,0.010872,-0.26717,0.172583,17.475,-13.312501,-59.925003
1782300453900,0.334995,0.705883,10.828622,0.183747,-0.193866,0.171972,16.237501,-12.562501,-59.906254
1782300453923,0.397209,1.117448,9.692031,0.343183,-0.088798,0.167696,15.525001,-13.275001,-60.675003
1782300453925,0.397209,1.117448,9.692031,0.340128,-0.035652,0.162198,15.525001,-13.275001,-60.675003
1782300453926,0.344566,1.330409,9.266109,0.340128,-0.035652,0.162198,15.525001,-13.275001,-60.675003
1782300453929,0.344566,1.330409,9.266109,0.340128,-0.035652,0.162198,17.00625,-12.262501,-60.675003
1782300453934,0.270389,1.476372,8.782758,0.280264,0.012606,0.155479,17.00625,-12.262501,-60.675003
1782300453939,0.270389,1.476372,8.782758,0.280264,0.012606,0.155479,14.26875,-12.69375,-59.606251
1782300453943,0.196211,1.502693,8.337694,0.160534,0.010163,0.145705,14.26875,-12.69375,-59.606251
1782300453949,0.196211,1.502693,8.337694,0.160534,0.010163,0.145705,14.26875,-12.69375,-59.606251
1782300453951,0.105284,1.411765,8.208481,-0.011119,-0.050313,0.135931,14.26875,-12.69375,-59.606251
1782300453959,0.105284,1.411765,8.208481,-0.011119,-0.050313,0.135931,15.450001,-11.8125,-59.456253
1782300453960,0.18664,1.318445,8.486048,-0.190102,-0.123006,0.130434,15.450001,-11.8125,-59.456253
1782300453970,0.088534,1.045663,8.909578,-0.325103,-0.165766,0.111497,15.262501,-14.306251,-60.993752
1782300453977,-0.083749,0.784846,9.280466,-0.397185,-0.155993,0.109053,15.262501,-14.306251,-60.993752
1782300453979,-0.083749,0.784846,9.280466,-0.397185,-0.155993,0.109053,15.843751,-15.20625,-59.025002
1782300453985,-0.083749,0.784846,9.280466,-0.413679,-0.110789,0.110275,15.843751,-15.20625,-59.025002
1782300453986,-0.090927,0.684347,9.51257,-0.413679,-0.110789,0.110275,15.843751,-15.20625,-59.025002
1782300453989,-0.090927,0.684347,9.51257,-0.413679,-0.110789,0.110275,14.906251,-13.275001,-60.225002
1782300453995,-0.129212,0.653241,9.584354,-0.383135,-0.052146,0.102945,14.906251,-13.275001,-60.225002
1782300454000,-0.129212,0.653241,9.584354,-0.383135,-0.052146,0.102945,14.55,-12.39375,-59.606251
1782300454003,-0.18664,0.693919,9.562819,-0.305556,0.007108,0.09256,14.55,-12.39375,-59.606251
