ts,ax,ay,az,gx,gy,gz,mx,my,mz
1782300237862,0.282353,1.234697,9.500605,-0.049909,0.052923,0.106457,-8.606251,13.837501,-16.518751
1782300237879,0.229711,1.330409,9.19911,-0.046244,0.079801,0.106457,-7.93125,15.000001,-15.3
1782300237884,0.251246,1.344766,9.409678,-0.057239,0.055367,0.105846,-7.93125,15.000001,-15.3
1782300237889,0.251246,1.344766,9.409678,-0.057239,0.055367,0.105846,-8.38125,15.3,-15.750001
1782300237892,0.272782,1.378266,9.553248,-0.05785,0.063308,0.107068,-8.38125,15.3,-15.750001
1782300237898,0.272782,1.378266,9.553248,-0.05785,0.063308,0.107068,-9.450001,15.31875,-15.750001
1782300237901,0.303888,1.368695,9.514963,-0.05113,0.065751,0.108901,-9.450001,15.31875,-15.750001
1782300237908,0.303888,1.368695,9.514963,-0.05113,0.065751,0.108901,-6.7125,16.181252,-16.650002
1782300237909,0.291924,1.371087,9.500605,-0.048687,0.058421,0.109511,-6.7125,16.181252,-16.650002
1782300237919,0.260818,1.366302,9.507783,-0.048076,0.055977,0.110122,-8.175,14.718751,-16.668751
1782300237927,0.294317,1.371087,9.565212,-0.047465,0.025434,0.115009,-8.175,14.718751,-16.668751
1782300237928,0.294317,1.371087,9.565212,-0.047465,0.025434,0.115009,-7.59375,14.56875,-16.06875
1782300237935,0.368495,1.37348,9.656139,-0.042578,-0.002666,0.118063,-7.59375,14.56875,-16.06875
1782300237938,0.368495,1.37348,9.656139,-0.042578,-0.002666,0.118063,-8.64375,14.587501,-16.518751
1782300237944,0.356531,1.359123,9.711174,-0.029139,-0.010607,0.119285,-8.64375,14.587501,-16.518751
1782300237949,0.356531,1.359123,9.711174,-0.029139,-0.010607,0.119285,-7.6875,13.9875,-17.4375
1782300237952,0.31346,1.339981,9.742281,-0.009592,-0.009385,0.12234,-7.6875,13.9875,-17.4375
1782300237960,0.31346,1.339981,9.742281,-0.009592,-0.009385,0.12234,-7.6125,15.3,-16.050001
1782300237961,0.318245,1.339981,9.689639,0.002626,-0.004498,0.127226,-7.6125,15.3,-16.050001
1782300237969,0.301496,1.320838,9.60589,0.005069,-0.006331,0.131503,-7.5,15.150001,-15.150001
1782300237979,0.29671,1.289731,9.603497,-0.004094,-0.017326,0.135168,-7.95,15.000001,-15.000001
1782300237987,0.299103,1.241875,9.692031,-0.019976,-0.032598,0.138833,-7.95,15.000001,-15.000001
1782300237988,0.299103,1.241875,9.692031,-0.019976,-0.032598,0.138833,-9.056251,14.587501,-17.587502
1782300237995,0.294317,1.182054,9.735102,-0.045022,-0.039317,0.144331,-9.056251,14.587501,-17.587502
1782300237998,0.294317,1.182054,9.735102,-0.045022,-0.039317,0.144331,-8.306251,13.837501,-16.518751
1782300238004,0.287139,1.146162,9.77578,-0.067013,-0.039928,0.153494,-8.306251,13.837501,-16.518751
1782300238010,0.287139,1.146162,9.77578,-0.067013,-0.039928,0.153494,-9.1875,14.00625,-17.4375
1782300238013,0.253639,1.112663,9.821244,-0.080452,-0.04115,0.163267,-9.1875,14.00625,-17.4375
1782300238026,0.200997,1.074377,9.904993,-0.075565,-0.044204,0.173652,-7.33125,16.331251,-16.800001
1782300238029,0.200997,1.074377,9.904993,-0.075565,-0.044204,0.173652,-7.66875,15.58125,-15.000001
1782300238030,0.200997,1.074377,9.904993,-0.052352,-0.039928,0.181593,-7.66875,15.58125,-15.000001
1782300238031,0.143569,1.036092,9.974384,-0.052352,-0.039928,0.181593,-7.66875,15.58125,-15.000001
1782300238040,0.133998,1.069592,9.916956,-0.013257,-0.022213,0.191978,-8.493751,14.437501,-15.918751
1782300238047,0.133998,1.129412,9.794922,0.028282,0.013828,0.201141,-8.493751,14.437501,-15.918751
1782300238049,0.133998,1.129412,9.794922,0.028282,0.013828,0.201141,-7.575,14.26875,-16.518751
1782300238056,0.069392,1.22034,9.601104,0.065545,0.054145,0.21458,-7.575,14.26875,-16.518751
1782300238059,0.069392,1.22034,9.601104,0.065545,0.054145,0.21458,-8.493751,13.9875,-15.618751
1782300238064,0.069392,1.22034,9.601104,0.091201,0.077969,0.229241,-8.493751,13.9875,-15.618751
1782300238066,-0.031107,1.289731,9.440785,0.091201,0.077969,0.229241,-8.493751,13.9875,-15.618751
1782300238070,-0.031107,1.289731,9.440785,0.091201,0.077969,0.229241,-9.28125,15.168751,-15.900001
1782300238073,-0.143569,1.380659,9.337893,0.105251,0.084688,0.240847,-9.28125,15.168751,-15.900001
1782300238079,-0.143569,1.380659,9.337893,0.105251,0.084688,0.240847,-9.262501,14.7375,-15.918751
1782300238083,-0.205783,1.462015,9.285251,0.107694,0.075525,0.251843,-9.262501,14.7375,-15.918751
1782300238089,-0.205783,1.462015,9.285251,0.107694,0.075525,0.251843,-9.5625,14.7375,-16.21875
1782300238092,-0.22014,1.545763,9.201502,0.097921,0.072471,0.265893,-9.5625,14.7375,-16.21875
1782300238100,-0.229711,1.639084,9.144075,0.075319,0.082245,0.281775,-5.64375,15.431251,-16.200001
1782300238109,-0.277567,1.691726,9.136897,0.042943,0.095073,0.295825,-7.89375,15.01875,-16.518751
1782300238118,-0.332602,1.718047,9.179967,-0.000429,0.097516,0.310486,-7.89375,15.01875,-16.518751
1782300238119,-0.332602,1.718047,9.179967,-0.000429,0.097516,0.310486,-7.6125,13.51875,-14.250001
1782300238134,-0.349352,1.773082,9.302002,-0.106108,0.088353,0.340418,-6.975,13.668751,-15.618751
1782300238139,-0.349352,1.773082,9.302002,-0.106108,0.088353,0.340418,-9.13125,15.01875,-15.750001
1782300238141,-0.342174,1.710868,9.483856,-0.155588,0.088353,0.350192,-9.13125,15.01875,-15.750001
1782300238149,-0.342174,1.710868,9.483856,-0.155588,0.088353,0.350192,-7.59375,14.26875,-15.76875
1782300238150,-0.392423,1.665405,9.677674,-0.191629,0.089575,0.356301,-7.59375,14.26875,-15.76875
1782300238160,-0.409173,1.598405,9.826029,-0.217286,0.09996,0.359966,-6.84375,15.000001,-16.06875
1782300238167,-0.399601,1.502693,9.888242,-0.243553,0.109123,0.357522,-6.84375,15.000001,-16.06875
1782300238169,-0.399601,1.502693,9.888242,-0.243553,0.109123,0.357522,-7.6125,15.3,-16.050001
1782300238176,-0.392423,1.409373,9.948063,-0.273485,0.096295,0.352025,-7.6125,15.3,-16.050001
1782300238179,-0.392423,1.409373,9.948063,-0.273485,0.096295,0.352025,-6.225,14.400001,-16.21875
1782300238184,-0.37328,1.328017,10.065312,-0.304639,0.068806,0.341029,-6.225,14.400001,-16.21875
1782300238191,-0.37328,1.328017,10.065312,-0.304639,0.068806,0.341029,-7.275,14.56875,-16.81875
1782300238193,-0.320638,1.253839,10.228023,-0.328463,0.040095,0.328812,-7.275,14.56875,-16.81875
1782300238199,-0.320638,1.253839,10.228023,-0.328463,0.040095,0.328812,-7.10625,16.1625,-14.08125
1782300238201,-0.320638,1.253839,10.228023,-0.343124,0.021158,0.31354,-7.10625,16.1625,-14.08125
1782300238202,-0.275175,1.189233,10.35245,-0.343124,0.021158,0.31354,-7.10625,16.1625,-14.08125
1782300238209,-0.275175,1.189233,10.35245,-0.343124,0.021158,0.31354,-7.65,15.3,-15.000001
1782300238210,-0.227318,1.143769,10.467306,-0.338237,0.010163,0.293993,-7.65,15.3,-15.000001
1782300238220,-0.198604,1.143769,10.500805,-0.310137,0.001,0.272001,-5.64375,15.88125,-16.96875
1782300238227,-0.148355,1.177269,10.4027,-0.259435,0.001,0.25001,-5.64375,15.88125,-16.96875
1782300238228,-0.148355,1.177269,10.4027,-0.259435,0.001,0.25001,-5.98125,16.462502,-16.650002
1782300238235,-0.083749,1.268196,10.201703,-0.191018,0.019936,0.229852,-5.98125,16.462502,-16.650002
1782300238238,-0.083749,1.268196,10.201703,-0.191018,0.019936,0.229852,-6.16875,16.012501,-14.681251
1782300238244,-0.043071,1.361516,9.950456,-0.111606,0.03643,0.210304,-6.16875,16.012501,-14.681251
1782300238249,-0.043071,1.361516,9.950456,-0.111606,0.03643,0.210304,-7.9875,16.331251,-14.981251
1782300238252,-0.028714,1.497907,9.677674,-0.02975,0.078579,0.192589,-7.9875,16.331251,-14.981251
1782300238260,-0.028714,1.497907,9.677674,-0.02975,0.078579,0.192589,-7.0875,16.462502,-15.13125
1782300238261,-0.021535,1.648655,9.345072,0.034391,0.116453,0.176707,-7.0875,16.462502,-15.13125
1782300238268,-0.021535,1.648655,9.345072,0.034391,0.116453,0.176707,-6.375,16.893751,-14.062501
1782300238270,-0.014357,1.775474,8.955041,0.070432,0.130503,0.165711,-6.375,16.893751,-14.062501
1782300238281,-0.007178,1.887937,8.600904,0.069821,0.126838,0.158381,-6.3,16.462502,-15.58125
1782300238287,-0.028714,1.974079,8.423835,0.036223,0.099349,0.156548,-6.3,16.462502,-15.58125
1782300238288,-0.028714,1.974079,8.423835,0.036223,0.099349,0.156548,-7.05,15.431251,-15.150001
1782300238296,0.004786,1.976472,8.576976,-0.021809,0.093851,0.159602,-7.05,15.431251,-15.150001
1782300238298,0.004786,1.976472,8.576976,-0.021809,0.093851,0.159602,-7.05,15.431251,-15.150001
1782300238304,0.055035,1.969293,8.754045,-0.078008,0.116453,0.166322,-7.05,15.431251,-15.150001
1782300238309,0.055035,1.969293,8.754045,-0.078008,0.116453,0.166322,-5.86875,17.043751,-16.03125
1782300238313,0.062213,1.962115,8.897614,-0.130543,0.131725,0.177317,-5.86875,17.043751,-16.03125
1782300238318,0.062213,1.962115,8.897614,-0.130543,0.131725,0.177317,-7.06875,15.88125,-15.13125
1782300238321,0.023928,1.962115,9.048362,-0.169638,0.138444,0.189535,-7.06875,15.88125,-15.13125
1782300238328,0.023928,1.962115,9.048362,-0.169638,0.138444,0.189535,-6.69375,15.88125,-16.96875
1782300238330,-0.0335,1.892723,9.297216,-0.187964,0.134779,0.203585,-6.69375,15.88125,-16.96875
1782300238340,-0.117248,1.835295,9.541283,-0.184299,0.129281,0.217634,-5.4375,17.775002,-15.731251
1782300238347,-0.162712,1.818545,9.708781,-0.16414,0.124394,0.230463,-5.4375,17.775002,-15.731251
1782300238348,-0.162712,1.818545,9.708781,-0.16414,0.124394,0.230463,-6.2625,18.075001,-14.212501
1782300238356,-0.205783,1.770689,9.794922,-0.136041,0.136612,0.245123,-6.2625,18.075001,-14.212501
1782300238358,-0.205783,1.770689,9.794922,-0.136041,0.136612,0.245123,-5.34375,17.175001,-13.6125
1782300238364,-0.265603,1.708475,9.823637,-0.104276,0.145775,0.259784,-5.34375,17.175001,-13.6125
1782300238369,-0.265603,1.708475,9.823637,-0.104276,0.145775,0.259784,-6.7875,16.462502,-14.83125
1782300238373,-0.337388,1.696511,9.849958,-0.076787,0.14944,0.275667,-6.7875,16.462502,-14.83125
1782300238378,-0.337388,1.696511,9.849958,-0.076787,0.14944,0.275667,-5.08125,16.293751,-15.750001
1782300238381,-0.387637,1.684547,9.871493,-0.054185,0.161046,0.286662,-5.08125,16.293751,-15.750001
1782300238388,-0.387637,1.684547,9.871493,-0.054185,0.161046,0.286662,-4.7625,15.262501,-15.3
1782300238390,-0.457029,1.634298,9.897814,-0.0438,0.151883,0.291549,-4.7625,15.262501,-15.3
1782300238399,-0.521635,1.627119,9.945671,-0.046244,0.131114,0.290327,-4.8,15.993751,-14.981251
1782300238407,-0.55992,1.648655,9.919349,-0.056628,0.097516,0.28483,-4.8,15.993751,-14.981251
1782300238408,-0.55992,1.648655,9.919349,-0.056628,0.097516,0.28483,-4.21875,17.175001,-15.58125
1782300238416,-0.562313,1.651048,9.890635,-0.068846,0.045593,0.276888,-4.21875,17.175001,-15.58125
1782300238418,-0.562313,1.651048,9.890635,-0.068846,0.045593,0.276888,-4.8375,17.775002,-15.731251
1782300238424,-0.567099,1.641476,9.893029,-0.078619,-0.005109,0.264671,-4.8375,17.775002,-15.731251
1782300238429,-0.567099,1.641476,9.893029,-0.078619,-0.005109,0.264671,-5.4375,17.043751,-15.281251
1782300238436,-0.567099,1.641476,9.893029,-0.073122,-0.026489,0.249399,-5.4375,17.043751,-15.281251
1782300238437,-0.586242,1.607977,9.883457,-0.073122,-0.026489,0.249399,-5.4375,17.043751,-15.281251
1782300238438,-0.586242,1.607977,9.883457,-0.073122,-0.026489,0.249399,-4.2,16.44375,-15.58125
1782300238441,-0.598206,1.600798,9.857136,-0.056628,-0.042372,0.232906,-4.2,16.44375,-15.58125
1782300238448,-0.598206,1.600798,9.857136,-0.056628,-0.042372,0.232906,-5.00625,18.356251,-15.88125
1782300238450,-0.607777,1.591227,9.818851,-0.027918,-0.050313,0.215191,-5.00625,18.356251,-15.88125
1782300238459,-0.59342,1.605584,9.754244,0.006902,-0.042983,0.196865,-4.575,17.15625,-13.6125
1782300238467,-0.588634,1.646262,9.672888,0.044775,-0.031987,0.17915,-4.575,17.15625,-13.6125
1782300238468,-0.588634,1.646262,9.672888,0.044775,-0.031987,0.17915,-3.45,17.175001,-16.181252
1782300238476,-0.581456,1.674976,9.558033,0.077762,-0.033209,0.161435,-3.45,17.175001,-16.181252
1782300238478,-0.581456,1.674976,9.558033,0.077762,-0.033209,0.161435,-5.26875,19.518751,-13.44375
1782300238484,-0.581456,1.674976,9.558033,0.104029,-0.028322,0.146774,-5.26875,19.518751,-13.44375
1782300238485,-0.557528,1.727618,9.433607,0.104029,-0.028322,0.146774,-5.26875,19.518751,-13.44375
1782300238489,-0.557528,1.727618,9.433607,0.104029,-0.028322,0.146774,-4.29375,18.9375,-14.812501
1782300238493,-0.528814,1.775474,9.316358,0.119912,-0.014272,0.134557,-4.29375,18.9375,-14.812501
1782300238498,-0.528814,1.775474,9.316358,0.119912,-0.014272,0.134557,-4.06875,17.325001,-15.731251
1782300238501,-0.524028,1.828117,9.246966,0.127242,-0.002055,0.124172,-4.06875,17.325001,-15.731251
1782300238508,-0.524028,1.828117,9.246966,0.127242,-0.002055,0.124172,-5.83125,18.65625,-14.043751
1782300238510,-0.512064,1.885544,9.196717,0.127853,0.00833,0.114398,-5.83125,18.65625,-14.043751
1782300238519,-0.464208,1.914258,9.175182,0.116247,-0.000833,0.102792,-5.0625,19.387501,-15.1125
1782300238527,-0.409173,1.940579,9.117754,0.098531,-0.024046,0.092407,-5.0625,19.387501,-15.1125
1782300238528,-0.409173,1.940579,9.117754,0.098531,-0.024046,0.092407,-5.775,17.625,-14.812501
1782300238540,-0.363709,1.978864,9.139289,0.078984,-0.050924,0.082633,-4.81875,16.293751,-14.681251
1782300238545,-0.337388,2.007578,9.18236,0.067988,-0.068028,0.07286,-4.81875,16.293751,-14.681251
1782300238549,-0.337388,2.007578,9.18236,0.067988,-0.068028,0.07286,-4.5,16.143751,-15.13125
1782300238553,-0.31346,2.014757,9.19911,0.06921,-0.083911,0.063697,-4.5,16.143751,-15.13125
1782300238558,-0.31346,2.014757,9.19911,0.06921,-0.083911,0.063697,-4.275,17.15625,-14.062501
1782300238562,-0.265603,2.009971,9.261323,0.075929,-0.084521,0.056366,-4.275,17.15625,-14.062501
1782300238569,-0.265603,2.009971,9.261323,0.075929,-0.084521,0.056366,-4.89375,18.056252,-13.9125
1782300238570,-0.265603,2.009971,9.261323,0.089368,-0.078413,0.050868,-4.89375,18.056252,-13.9125
1782300238571,-0.189033,2.033899,9.349858,0.089368,-0.078413,0.050868,-4.89375,18.056252,-13.9125
1782300238580,-0.189033,2.033899,9.349858,0.101586,-0.069861,0.04476,-4.89375,18.056252,-13.9125
1782300238581,-0.107677,2.038685,9.450356,0.101586,-0.069861,0.04476,-4.95,17.19375,-16.181252
1782300238589,-0.062213,2.074577,9.519748,0.115025,-0.058865,0.039262,-4.95,17.19375,-16.181252
1782300238591,-0.062213,2.074577,9.519748,0.115025,-0.058865,0.039262,-6.975,18.825001,-15.712501
1782300238596,-0.043071,2.088934,9.596319,0.127853,-0.052146,0.031932,-6.975,18.825001,-15.712501
1782300238599,-0.043071,2.088934,9.596319,0.127853,-0.052146,0.031932,-4.275,17.90625,-14.3625
1782300238605,-0.052642,2.09372,9.732709,0.138849,-0.028933,0.025823,-4.275,17.90625,-14.3625
1782300238610,-0.052642,2.09372,9.732709,0.138849,-0.028933,0.025823,-5.49375,19.237501,-15.262501
1782300238614,-0.100499,2.100898,9.8691,0.145568,-0.006942,0.019714,-5.49375,19.237501,-15.262501
1782300238619,-0.100499,2.100898,9.8691,0.145568,-0.006942,0.019714,-4.35,17.775002,-16.481251
1782300238623,-0.095713,2.115255,9.950456,0.149844,0.012606,0.01666,-4.35,17.775002,-16.481251
1782300238629,-0.095713,2.115255,9.950456,0.149844,0.012606,0.01666,-4.81875,18.075001,-16.481251
1782300238631,-0.107677,2.139184,10.082061,0.152288,0.033375,0.016049,-4.81875,18.075001,-16.481251
1782300238645,-0.11007,2.17029,10.326129,0.156564,0.059032,0.025823,-4.21875,17.625,-16.181252
1782300238649,-0.100499,2.141576,10.653945,0.163283,0.097516,0.042927,-5.925,18.075001,-14.962501
1782300238656,-0.100499,2.141576,10.653945,0.1755,0.141498,0.057588,-5.925,18.075001,-14.962501
1782300238657,-0.114855,2.079363,10.998513,0.1755,0.141498,0.057588,-5.925,18.075001,-14.962501
1782300238659,-0.114855,2.079363,10.998513,0.1755,0.141498,0.057588,-4.59375,17.90625,-14.062501
1782300238665,-0.157926,2.007578,11.304794,0.192605,0.166544,0.071027,-4.59375,17.90625,-14.062501
1782300238669,-0.157926,2.007578,11.304794,0.192605,0.166544,0.071027,-4.10625,18.7875,-15.712501
1782300238674,-0.227318,1.895115,11.57279,0.213374,0.167766,0.077136,-4.10625,18.7875,-15.712501
1782300238679,-0.227318,1.895115,11.57279,0.213374,0.167766,0.077136,-4.875,18.50625,-14.962501
1782300238682,-0.29671,1.866402,11.800108,0.239641,0.145775,0.075914,-4.875,18.50625,-14.962501
1782300238689,-0.29671,1.866402,11.800108,0.239641,0.145775,0.075914,-3.6,19.35,-13.593751
1782300238691,-0.282353,1.849652,11.900607,0.259189,0.117675,0.069805,-3.6,19.35,-13.593751
1782300238699,-0.282353,1.849652,11.900607,0.261632,0.095684,0.060642,-3.6,19.35,-13.593751
1782300238700,-0.217747,1.844866,11.814465,0.261632,0.095684,0.060642,-4.36875,18.50625,-16.78125
1782300238710,-0.114855,1.832902,11.601504,0.237809,0.084077,0.047203,-4.93125,17.19375,-16.950001
1782300238717,-0.071785,1.722832,11.422042,0.176722,0.084077,0.034986,-4.93125,17.19375,-16.950001
1782300238719,-0.071785,1.722832,11.422042,0.176722,0.084077,0.034986,-3.54375,19.368752,-15.1125
1782300238725,-0.071785,1.722832,11.422042,0.065545,0.086521,0.028266,-3.54375,19.368752,-15.1125
1782300238726,-0.052642,1.555335,11.091833,0.065545,0.086521,0.028266,-3.54375,19.368752,-15.1125
1782300238730,-0.052642,1.555335,11.091833,0.065545,0.086521,0.028266,-3.7875,20.118752,-17.38125
1782300238744,0.031107,1.050449,11.568004,-0.249051,0.119507,0.022158,-4.5375,18.956251,-16.931252
1782300238748,0.031107,1.050449,11.568004,-0.249051,0.119507,0.022158,-4.0875,18.056252,-15.731251
1782300238750,-0.038285,0.684347,11.77618,-0.355341,0.168987,0.021547,-4.0875,18.056252,-15.731251
1782300238760,-0.066999,0.39003,12.032212,-0.403599,0.202585,0.021547,-3.225,19.368752,-15.8625
1782300238769,-0.086142,0.148355,12.304993,-0.378554,0.205639,0.015438,-4.48125,21.0,-15.993751
1782300238776,-0.107677,-0.019143,12.639988,-0.272874,0.190979,0.001388,-4.48125,21.0,-15.993751
1782300238778,-0.107677,-0.019143,12.639988,-0.272874,0.190979,0.001388,-4.48125,21.0,-15.993751
1782300238785,-0.043071,-0.16989,12.60649,-0.103665,0.208694,-0.022435,-4.48125,21.0,-15.993751
1782300238789,-0.043071,-0.16989,12.60649,-0.103665,0.208694,-0.022435,-3.24375,20.400002,-16.1625
1782300238793,-0.045464,-0.208176,12.118353,0.077151,0.1922,-0.055422,-3.24375,20.400002,-16.1625
1782300238799,-0.045464,-0.208176,12.118353,0.077151,0.1922,-0.055422,-5.175,19.5375,-16.012501
1782300238802,-0.102891,-0.143569,11.503398,0.219483,0.136001,-0.089631,-5.175,19.5375,-16.012501
1782300238808,-0.102891,-0.143569,11.503398,0.219483,0.136001,-0.089631,-3.825,20.418751,-16.9125
1782300238810,-0.153141,-0.021535,10.967406,0.300728,0.066973,-0.116509,-3.825,20.418751,-16.9125
1782300238819,-0.153141,-0.021535,10.967406,0.320886,0.032154,-0.128726,-3.825,20.418751,-16.9125
1782300238820,-0.162712,0.069392,10.510376,0.320886,0.032154,-0.128726,-5.025,19.387501,-15.8625
1782300238829,-0.167498,0.148355,9.969598,0.28118,0.026045,-0.128115,-3.4875,20.118752,-17.38125
1782300238836,-0.212961,0.232104,9.431214,0.204822,0.027878,-0.120174,-3.4875,20.118752,-17.38125
1782300238838,-0.212961,0.232104,9.431214,0.204822,0.027878,-0.120174,-3.4125,21.300001,-16.44375
1782300238845,-0.241675,0.366102,9.017255,0.130907,0.013217,-0.105513,-3.4125,21.300001,-16.44375
1782300238849,-0.241675,0.366102,9.017255,0.130907,0.013217,-0.105513,-3.7875,19.387501,-16.931252
1782300238853,-0.222533,0.440279,8.837794,0.089979,-0.035652,-0.090241,-3.7875,19.387501,-16.931252
1782300238861,-0.222533,0.440279,8.837794,0.089979,-0.035652,-0.090241,-4.25625,20.137501,-17.38125
1782300238862,-0.131605,0.519243,8.849758,0.103418,-0.085132,-0.076191,-4.25625,20.137501,-17.38125
1782300238868,-0.131605,0.519243,8.849758,0.103418,-0.085132,-0.076191,-4.2375,20.137501,-17.681252
1782300238870,0.009571,0.650848,8.844972,0.165727,-0.098571,-0.068861,-4.2375,20.137501,-17.681252
1782300238879,0.145962,0.727418,8.780365,0.254302,-0.088187,-0.06825,-2.90625,19.518751,-16.462502
1782300238889,0.174676,0.775275,8.576976,0.33738,-0.078413,-0.06825,-4.5375,19.6875,-17.38125
1782300238896,0.167498,0.79681,8.368801,0.383194,-0.088187,-0.062752,-4.5375,19.6875,-17.38125
1782300238898,0.167498,0.79681,8.368801,0.383194,-0.088187,-0.062752,-3.7125,21.0,-15.993751
1782300238905,0.5001,1.162912,8.119947,0.378308,-0.113843,-0.048092,-3.7125,21.0,-15.993751
1782300238909,0.5001,1.162912,8.119947,0.378308,-0.113843,-0.048092,-4.85625,20.2875,-17.53125
1782300238915,0.689133,1.205983,7.957235,0.319054,-0.167599,-0.078635,-4.85625,20.2875,-17.53125
1782300238919,0.689133,1.205983,7.957235,0.319054,-0.167599,-0.078635,-2.71875,18.9375,-16.931252
1782300238922,0.619741,1.129412,8.007484,0.212763,-0.233572,-0.088409,-2.71875,18.9375,-16.931252
1782300238928,0.619741,1.129412,8.007484,0.212763,-0.233572,-0.088409,-4.44375,17.643751,-18.150002
1782300238931,0.624527,1.095913,8.277873,0.093645,-0.298324,-0.087187,-4.44375,17.643751,-18.150002
1782300238939,0.681954,1.062413,8.593726,-0.004705,-0.31665,-0.100015,-4.21875,19.387501,-17.38125
1782300238957,0.629312,0.782453,9.132111,-0.115882,-0.290383,-0.141554,-6.0375,20.456251,-18.431252
1782300238959,0.629312,0.782453,9.132111,-0.115882,-0.290383,-0.141554,-6.05625,20.75625,-18.13125
1782300238965,0.57667,0.68674,9.455142,-0.14276,-0.278166,-0.166599,-6.05625,20.75625,-18.13125
1782300238969,0.57667,0.68674,9.455142,-0.14276,-0.278166,-0.166599,-4.93125,19.40625,-18.75
1782300238974,0.574277,0.562313,9.708781,-0.162919,-0.267781,-0.18798,-4.93125,19.40625,-18.75
1782300238979,0.574277,0.562313,9.708781,-0.162919,-0.267781,-0.18798,-5.38125,18.825001,-18.6
1782300238983,0.531207,0.454636,9.849958,-0.180023,-0.253731,-0.198364,-5.38125,18.825001,-18.6
1782300238990,0.531207,0.454636,9.849958,-0.180023,-0.253731,-0.198364,-4.8375,19.556252,-17.53125
1782300238991,0.468993,0.358923,9.981563,-0.18491,-0.242125,-0.199586,-4.8375,19.556252,-17.53125
1782300238999,0.468993,0.358923,9.981563,-0.18491,-0.242125,-0.199586,-5.26875,18.675001,-17.38125
1782300239000,0.413958,0.320638,10.053347,-0.168416,-0.229296,-0.195921,-5.26875,18.675001,-17.38125
1782300239010,0.37328,0.351745,10.070097,-0.120158,-0.202418,-0.18126,-5.26875,19.40625,-18.13125
1782300239017,0.37328,0.351745,10.070097,-0.037081,-0.154771,-0.156826,-5.26875,19.40625,-18.13125
1782300239018,0.361316,0.452243,9.933707,-0.037081,-0.154771,-0.156826,-5.26875,19.40625,-18.13125
1782300239019,0.361316,0.452243,9.933707,-0.037081,-0.154771,-0.156826,-6.28125,18.69375,-18.75
1782300239026,0.349352,0.588634,9.68246,0.077762,-0.094906,-0.126893,-6.28125,18.69375,-18.75
1782300239028,0.349352,0.588634,9.68246,0.077762,-0.094906,-0.126893,-6.3,20.175001,-19.200001
1782300239034,0.356531,0.751346,9.349858,0.209098,-0.017937,-0.100626,-6.3,20.175001,-19.200001
1782300239039,0.356531,0.751346,9.349858,0.209098,-0.017937,-0.100626,-5.26875,18.975,-17.681252
1782300239042,0.351745,0.952343,8.952649,0.326384,0.063308,-0.077413,-5.26875,18.975,-17.681252
1782300239052,0.260818,1.158126,8.557833,0.405796,0.131725,-0.058476,-5.94375,19.44375,-20.268751
1782300239058,0.260818,1.158126,8.557833,0.405796,0.131725,-0.058476,-4.9875,20.137501,-17.681252
1782300239059,0.150748,1.359123,8.163018,0.431453,0.172042,-0.038929,-4.9875,20.137501,-17.681252
1782300239069,0.102891,1.526621,7.68206,0.40091,0.167766,-0.015105,-5.85,19.275002,-18.6
1782300239077,0.086142,1.651048,7.301601,0.308669,0.105457,0.011162,-5.85,19.275002,-18.6
1782300239078,0.086142,1.651048,7.301601,0.308669,0.105457,0.011162,-5.8125,18.09375,-18.6
1782300239086,0.136391,1.785046,7.356637,0.169392,0.004665,0.032542,-5.8125,18.09375,-18.6
1782300239089,0.136391,1.785046,7.356637,0.169392,0.004665,0.032542,-4.51875,20.137501,-18.431252
1782300239094,0.136391,1.785046,7.356637,0.035002,-0.059476,0.05209,-4.51875,20.137501,-18.431252
1782300239095,0.189033,1.859223,7.720346,0.035002,-0.059476,0.05209,-4.51875,20.137501,-18.431252
1782300239099,0.189033,1.859223,7.720346,0.035002,-0.059476,0.05209,-5.75625,19.293751,-21.168751
1782300239102,0.189033,1.859223,7.720346,-0.05113,-0.080856,0.07286,-5.75625,19.293751,-21.168751
1782300239103,0.210568,1.885544,8.069697,-0.05113,-0.080856,0.07286,-5.75625,19.293751,-21.168751
1782300239109,0.210568,1.885544,8.069697,-0.05113,-0.080856,0.07286,-5.11875,19.556252,-17.831251
1782300239111,0.210568,1.885544,8.069697,-0.090226,-0.060087,0.089964,-5.11875,19.556252,-17.831251
1782300239112,0.260818,1.89033,8.249159,-0.090226,-0.060087,0.089964,-5.11875,19.556252,-17.831251
1782300239119,0.260818,1.89033,8.249159,-0.090226,-0.060087,0.089964,-5.23125,19.425001,-18.75
1782300239120,0.251246,1.861616,8.354443,-0.097556,-0.030765,0.098516,-5.23125,19.425001,-18.75
1782300239131,0.251246,1.861616,8.354443,-0.089004,-0.017937,0.099127,-4.8375,20.2875,-18.28125
1782300239132,0.20339,1.804188,8.502799,-0.089004,-0.017937,0.099127,-4.8375,20.2875,-18.28125
1782300239137,0.20339,1.804188,8.502799,-0.076176,-0.015494,0.092407,-4.8375,20.2875,-18.28125
1782300239138,0.045464,1.722832,8.785151,-0.076176,-0.015494,0.092407,-4.8375,20.2875,-18.28125
1782300239139,0.045464,1.722832,8.785151,-0.076176,-0.015494,0.092407,-6.6375,19.575001,-17.53125
1782300239145,0.229711,1.648655,8.931114,-0.065791,-0.019159,0.093018,-6.6375,19.575001,-17.53125
1782300239159,0.418744,1.631905,9.084254,-0.065791,-0.023435,0.074692,-4.3125,19.25625,-19.35
1782300239163,0.339781,1.641476,9.24218,-0.074343,-0.023435,0.052701,-4.3125,19.25625,-19.35
1782300239169,0.339781,1.641476,9.24218,-0.074343,-0.023435,0.052701,-5.98125,20.775002,-20.25
1782300239171,0.33021,1.643869,9.328322,-0.070067,-0.026489,0.037429,-5.98125,20.775002,-20.25
1782300239179,0.33021,1.643869,9.328322,-0.070067,-0.026489,0.037429,-5.11875,20.606251,-19.03125
1782300239180,0.33021,1.643869,9.328322,-0.055406,-0.033209,0.014216,-5.11875,20.606251,-19.03125
1782300239181,0.37328,1.584049,9.404892,-0.055406,-0.033209,0.014216,-5.11875,20.606251,-19.03125
1782300239190,0.37328,1.584049,9.404892,-0.037081,-0.031376,-0.007164,-5.11875,20.606251,-19.03125
1782300239191,0.437887,1.464407,9.591532,-0.037081,-0.031376,-0.007164,-4.95,20.456251,-19.200001
1782300239197,0.437887,1.464407,9.591532,-0.009592,-0.043594,-0.028544,-4.95,20.456251,-19.200001
1782300239198,0.468993,1.732404,9.498212,-0.009592,-0.043594,-0.028544,-4.95,20.456251,-19.200001
1782300239199,0.468993,1.732404,9.498212,-0.009592,-0.043594,-0.028544,-5.98125,20.475,-19.950001
1782300239206,0.468993,1.732404,9.498212,0.035612,-0.049702,-0.038318,-5.98125,20.475,-19.950001
1782300239207,0.555135,1.830509,9.63221,0.035612,-0.049702,-0.038318,-5.98125,20.475,-19.950001
1782300239209,0.555135,1.830509,9.63221,0.035612,-0.049702,-0.038318,-6.58125,19.59375,-19.650002
1782300239215,0.531207,1.768296,9.591532,0.071043,-0.010607,-0.042594,-6.58125,19.59375,-19.650002
1782300239220,0.531207,1.768296,9.591532,0.071043,-0.010607,-0.042594,-4.8,20.306252,-19.35
1782300239223,0.533599,1.835295,9.416856,0.116857,0.005887,-0.052368,-4.8,20.306252,-19.35
1782300239229,0.533599,1.835295,9.416856,0.116857,0.005887,-0.052368,-7.51875,20.475,-19.200001
1782300239232,0.66999,1.98365,9.361822,0.166948,0.018715,-0.057255,-7.51875,20.475,-19.200001
1782300239239,0.66999,1.98365,9.361822,0.166948,0.018715,-0.057255,-7.51875,20.475,-19.200001
1782300239240,0.66999,2.062613,9.278073,0.210931,0.038873,-0.061531,-7.51875,20.475,-19.200001
1782300239250,0.66999,2.062613,9.278073,0.247582,0.052312,-0.062142,-7.51875,20.475,-19.200001
1782300239251,0.684347,2.127219,9.223038,0.247582,0.052312,-0.062142,-5.86875,20.306252,-19.050001
1782300239272,0.655633,2.340181,9.18236,0.28851,0.092018,-0.052979,-5.1375,21.7875,-19.63125
1782300239274,0.612563,2.433501,9.156039,0.28851,0.11401,-0.044427,-5.1375,21.7875,-19.63125
1782300239280,0.612563,2.433501,9.156039,0.28851,0.11401,-0.044427,-4.74375,19.875,-20.418751
1782300239283,0.595813,2.476571,9.163217,0.276904,0.127449,-0.034042,-4.74375,19.875,-20.418751
1782300239289,0.595813,2.476571,9.163217,0.276904,0.127449,-0.034042,-6.525,18.862501,-20.418751
1782300239291,0.607777,2.495714,9.280466,0.253691,0.12867,-0.023046,-6.525,18.862501,-20.418751
1782300239298,0.607777,2.495714,9.280466,0.253691,0.12867,-0.023046,-4.95,22.237501,-21.300001
1782300239300,0.598206,2.440679,9.550854,0.218872,0.11462,-0.012051,-4.95,22.237501,-21.300001
1782300239309,0.569492,2.366502,9.9026,0.184053,0.090797,-0.000444,-5.025,21.356251,-22.668751
1782300239317,0.569492,2.366502,9.9026,0.157785,0.06453,0.011162,-5.025,21.356251,-22.668751
1782300239318,0.55992,2.227718,10.27588,0.157785,0.06453,0.011162,-5.025,21.356251,-22.668751
1782300239319,0.55992,2.227718,10.27588,0.157785,0.06453,0.011162,-5.2875,19.893751,-22.237501
1782300239325,0.57667,2.048256,10.622839,0.141292,0.041928,0.021547,-5.2875,19.893751,-22.237501
1782300239328,0.57667,2.048256,10.622839,0.141292,0.041928,0.021547,-5.2875,18.862501,-21.637501
1782300239334,0.57667,2.048256,10.622839,0.133962,0.024212,0.028877,-5.2875,18.862501,-21.637501
1782300239335,0.574277,1.883151,10.969799,0.133962,0.024212,0.028877,-5.2875,18.862501,-21.637501
1782300239340,0.574277,1.883151,10.969799,0.133962,0.024212,0.028877,-5.60625,19.743752,-21.7875
1782300239343,0.547956,1.842473,11.254545,0.137627,0.007108,0.031932,-5.60625,19.743752,-21.7875
1782300239349,0.547956,1.842473,11.254545,0.137627,0.007108,0.031932,-4.05,18.69375,-22.087502
1782300239351,0.547956,1.842473,11.254545,0.161451,-0.014272,0.034375,-4.05,18.69375,-22.087502
1782300239352,0.471386,1.844866,11.460327,0.161451,-0.014272,0.034375,-4.05,18.69375,-22.087502
1782300239366,0.433101,1.840081,11.591933,0.201768,-0.028933,0.036818,-5.25,20.456251,-19.5
1782300239370,0.311067,1.801795,11.733109,0.257356,-0.028933,0.039873,-5.34375,20.325001,-20.868752
1782300239377,0.311067,1.801795,11.733109,0.315388,-0.000833,0.052701,-5.34375,20.325001,-20.868752
1782300239378,0.179462,1.694118,11.867107,0.315388,-0.000833,0.052701,-4.18125,19.59375,-23.456251
1782300239386,0.047856,1.667797,11.97957,0.356316,0.046814,0.07347,-4.18125,19.59375,-23.456251
1782300239389,0.047856,1.667797,11.97957,0.356316,0.046814,0.07347,-4.0125,19.556252,-19.650002
1782300239395,-0.148355,1.68694,12.068104,0.363647,0.111566,0.102181,-4.0125,19.556252,-19.650002
1782300239399,-0.148355,1.68694,12.068104,0.363647,0.111566,0.102181,-4.21875,19.59375,-22.6875
1782300239403,-0.464208,1.68694,12.235602,0.320886,0.199531,0.144331,-4.21875,19.59375,-22.6875
1782300239409,-0.464208,1.68694,12.235602,0.320886,0.199531,0.144331,-3.6,20.175001,-23.137501
1782300239412,-0.519243,1.715654,12.118353,0.229867,0.303989,0.199309,-3.6,20.175001,-23.137501
1782300239419,-0.519243,1.715654,12.118353,0.229867,0.303989,0.199309,-4.10625,21.50625,-23.118752
1782300239421,-0.303888,1.588834,12.008283,0.109527,0.365686,0.264671,-4.10625,21.50625,-23.118752
1782300239430,-0.162712,1.277767,12.101604,-0.030361,0.409057,0.325147,-4.95,18.5625,-22.237501
1782300239438,-0.200997,0.892523,12.25953,-0.161086,0.442655,0.364853,-4.95,18.5625,-22.237501
1782300239440,-0.200997,0.892523,12.25953,-0.161086,0.442655,0.364853,-4.3875,18.993752,-21.337502
1782300239446,-0.181855,0.588634,12.285851,-0.256992,0.440211,0.384401,-4.3875,18.993752,-21.337502
1782300239449,-0.181855,0.588634,12.285851,-0.256992,0.440211,0.384401,-3.9,20.325001,-23.737501
1782300239454,-0.181855,0.588634,12.285851,-0.302196,0.379736,0.382568,-3.9,20.325001,-23.737501
1782300239455,-0.100499,0.337388,12.197317,-0.302196,0.379736,0.382568,-3.9,20.325001,-23.737501
1782300239467,-0.141177,0.181855,12.209281,-0.289368,0.255119,0.355079,-3.46875,18.825001,-21.637501
1782300239469,-0.141177,0.181855,12.209281,-0.289368,0.255119,0.355079,-4.1625,19.893751,-24.206251
1782300239472,-0.457029,0.282353,12.362422,-0.216675,0.095684,0.318427,-4.1625,19.893751,-24.206251
1782300239478,-0.457029,0.282353,12.362422,-0.216675,0.095684,0.318427,-3.88125,19.59375,-23.75625
1782300239481,-0.655633,0.449851,12.022641,-0.095724,-0.040539,0.293993,-3.88125,19.59375,-23.75625
1782300239490,-0.803988,0.440279,11.221045,0.040499,-0.148662,0.276277,-3.65625,20.75625,-22.518751
1782300239498,-0.70349,0.526421,10.354843,0.164505,-0.215247,0.272001,-3.65625,20.75625,-22.518751
1782300239499,-0.70349,0.526421,10.354843,0.164505,-0.215247,0.272001,-2.98125,20.456251,-23.887501
1782300239506,-0.258425,1.002593,9.629818,0.2598,-0.240903,0.244513,-2.98125,20.456251,-23.887501
1782300239510,-0.258425,1.002593,9.629818,0.2598,-0.240903,0.244513,-2.3625,19.875,-24.206251
1782300239515,-0.229711,1.249053,9.139289,0.324551,-0.226853,0.176096,-2.3625,19.875,-24.206251
1782300239520,-0.229711,1.249053,9.139289,0.324551,-0.226853,0.176096,-4.63125,18.862501,-23.00625
1782300239524,-0.267996,1.574477,8.598511,0.350208,-0.177984,0.135779,-4.63125,18.862501,-23.00625
1782300239529,-0.267996,1.574477,8.598511,0.350208,-0.177984,0.135779,-2.38125,20.306252,-23.737501
1782300239532,-0.267996,1.574477,8.598511,0.330049,-0.137667,0.124172,-2.38125,20.306252,-23.737501
1782300239533,-0.4666,1.421337,8.191731,0.330049,-0.137667,0.124172,-2.38125,20.306252,-23.737501
1782300239539,-0.4666,1.421337,8.191731,0.330049,-0.137667,0.124172,-2.9625,18.69375,-23.15625
1782300239540,-0.464208,1.497907,7.741881,0.251248,-0.105902,0.124783,-2.9625,18.69375,-23.15625
1782300239549,-0.464208,1.497907,7.741881,0.251248,-0.105902,0.124783,-4.5375,18.88125,-26.043751
1782300239550,-0.416351,1.550549,7.734702,0.12602,-0.10468,0.104624,-4.5375,18.88125,-26.043751
1782300239557,-0.425922,1.552942,7.830415,-0.020587,-0.110789,0.07286,-4.5375,18.88125,-26.043751
1782300239558,-0.425922,1.552942,7.830415,-0.020587,-0.110789,0.07286,-5.11875,21.525002,-24.337502
1782300239568,-0.564706,1.440479,8.045769,-0.159253,-0.113843,0.040484,-3.13125,20.625,-24.50625
1782300239574,-0.473779,1.287339,8.251552,-0.271653,-0.108345,0.015438,-3.13125,20.625,-24.50625
1782300239579,-0.473779,1.287339,8.251552,-0.271653,-0.108345,0.015438,-4.0125,20.19375,-24.656252
1782300239583,-0.437887,1.124627,8.371193,-0.351065,-0.086354,-0.015105,-4.0125,20.19375,-24.656252
1782300239589,-0.437887,1.124627,8.371193,-0.351065,-0.086354,-0.015105,-4.125,19.612501,-25.275002
1782300239592,-0.29671,0.997807,8.514762,-0.390771,-0.057033,-0.043816,-4.125,19.612501,-25.275002
1782300239599,-0.29671,0.997807,8.514762,-0.390771,-0.057033,-0.043816,-5.23125,20.643751,-24.806252
1782300239600,-0.153141,0.892523,8.660725,-0.395658,-0.020992,-0.072526,-5.23125,20.643751,-24.806252
1782300239610,-0.153141,0.892523,8.660725,-0.378554,0.013217,-0.095739,-5.23125,20.643751,-24.806252
1782300239611,-0.031107,0.803988,8.816258,-0.378554,0.013217,-0.095739,-4.9125,19.3125,-23.75625
1782300239618,0.011964,0.72024,8.950256,-0.3474,0.046814,-0.111622,-4.9125,19.3125,-23.75625
1782300239619,0.011964,0.72024,8.950256,-0.3474,0.046814,-0.111622,-3.45,20.325001,-23.4375
1782300239628,0.064606,0.681954,8.990934,-0.321133,0.060253,-0.121395,-3.45,20.325001,-23.4375
1782300239629,0.064606,0.681954,8.990934,-0.321133,0.060253,-0.121395,-4.81875,20.775002,-23.587502
1782300239635,0.064606,0.681954,8.990934,-0.313191,0.051091,-0.12445,-4.81875,20.775002,-23.587502
1782300239636,0.129212,0.646062,9.03879,-0.313191,0.051091,-0.12445,-4.81875,20.775002,-23.587502
1782300239639,0.129212,0.646062,9.03879,-0.313191,0.051091,-0.12445,-5.19375,18.13125,-23.456251
1782300239643,0.129212,0.646062,9.03879,-0.329685,0.016882,-0.119563,-5.19375,18.13125,-23.456251
1782300239644,0.217747,0.641276,9.086648,-0.329685,0.016882,-0.119563,-5.19375,18.13125,-23.456251
1782300239649,0.217747,0.641276,9.086648,-0.329685,0.016882,-0.119563,-4.2,19.875,-22.987501
1782300239653,0.311067,0.655633,9.108182,-0.360228,-0.030155,-0.107956,-4.2,19.875,-22.987501
1782300239659,0.311067,0.655633,9.108182,-0.360228,-0.030155,-0.107956,-4.81875,21.225,-24.337502
1782300239660,0.311067,0.655633,9.108182,-0.38283,-0.067417,-0.090852,-4.81875,21.225,-24.337502
1782300239661,0.351745,0.677169,9.129718,-0.38283,-0.067417,-0.090852,-4.81875,21.225,-24.337502
1782300239680,0.37328,0.70349,8.97897,-0.339459,-0.075969,-0.057255,-4.35,21.225,-24.637501
1782300239686,0.342174,0.756132,8.859329,-0.26982,-0.04115,-0.045037,-4.35,21.225,-24.637501
1782300239689,0.342174,0.756132,8.859329,-0.26982,-0.04115,-0.045037,-3.31875,20.15625,-22.837502
1782300239694,0.342174,0.756132,8.859329,-0.179412,0.016271,-0.037096,-3.31875,20.15625,-22.837502
1782300239695,0.339781,0.851845,8.699009,-0.179412,0.016271,-0.037096,-3.31875,20.15625,-22.837502
1782300239699,0.339781,0.851845,8.699009,-0.179412,0.016271,-0.037096,-5.08125,20.793751,-25.106251
1782300239703,0.342174,0.969093,8.466906,-0.083506,0.069416,-0.037707,-5.08125,20.793751,-25.106251
1782300239709,0.342174,0.969093,8.466906,-0.083506,0.069416,-0.037707,-5.08125,20.793751,-25.106251
1782300239712,0.301496,1.09352,8.131911,-0.004094,0.097516,-0.042594,-5.08125,20.793751,-25.106251
1782300239719,0.301496,1.09352,8.131911,-0.004094,0.097516,-0.042594,-4.1625,19.893751,-24.50625
1782300239720,0.301496,1.09352,8.131911,0.032558,0.062697,-0.050535,-4.1625,19.893751,-24.50625
1782300239721,0.256032,1.189233,7.71556,0.032558,0.062697,-0.050535,-4.1625,19.893751,-24.50625
1782300239730,0.256032,1.189233,7.71556,0.016676,-0.005109,-0.062142,-4.1625,19.893751,-24.50625
1782300239731,0.217747,1.282553,7.990734,0.016676,-0.005109,-0.062142,-2.7,21.356251,-24.487501
1782300239740,0.217747,1.282553,7.990734,-0.008981,-0.037485,-0.079246,-2.7,21.356251,-24.487501
1782300239741,0.114855,1.316052,8.340086,-0.008981,-0.037485,-0.079246,-4.93125,20.643751,-24.806252
1782300239747,0.019143,1.275374,8.490835,-0.024863,-0.082078,-0.100626,-4.93125,20.643751,-24.806252
1782300239749,0.019143,1.275374,8.490835,-0.024863,-0.082078,-0.100626,-4.1625,20.643751,-25.25625
1782300239756,0.014357,1.270589,8.493228,-0.046244,-0.157825,-0.125061,-4.1625,20.643751,-25.25625
1782300239760,0.014357,1.270589,8.493228,-0.046244,-0.157825,-0.125061,-3.88125,20.325001,-24.206251
1782300239763,0.014357,1.270589,8.493228,-0.071289,-0.256174,-0.149495,-3.88125,20.325001,-24.206251
1782300239772,0.143569,1.320838,8.833008,-0.071289,-0.256174,-0.149495,-3.88125,20.325001,-24.206251
1782300239773,0.143569,1.320838,8.833008,-0.083506,-0.317261,-0.170265,-4.66875,22.106251,-24.7875
1782300239778,0.143569,1.320838,8.833008,-0.083506,-0.317261,-0.170265,-5.68125,21.09375,-25.556252
1782300239781,0.189033,1.311267,8.85215,-0.084728,-0.341085,-0.189201,-5.68125,21.09375,-25.556252
1782300239789,0.189033,1.311267,8.85215,-0.084728,-0.341085,-0.189201,-5.23125,21.393751,-25.25625
1782300239790,0.239282,1.351945,8.77558,-0.08595,-0.355745,-0.208138,-5.23125,21.393751,-25.25625
1782300239799,0.287139,1.378266,8.758831,-0.082285,-0.356967,-0.230129,-5.2875,21.825001,-24.187502
1782300239807,0.282353,1.363909,8.813865,-0.06518,-0.339252,-0.255786,-5.2875,21.825001,-24.187502
1782300239809,0.282353,1.363909,8.813865,-0.06518,-0.339252,-0.255786,-4.74375,19.762501,-25.125002
1782300239815,0.248854,1.35673,8.85215,-0.032804,-0.306876,-0.284496,-4.74375,19.762501,-25.125002
1782300239819,0.248854,1.35673,8.85215,-0.032804,-0.306876,-0.284496,-4.0125,21.225,-25.406252
1782300239823,0.210568,1.368695,8.938292,0.010567,-0.270835,-0.312596,-4.0125,21.225,-25.406252
1782300239829,0.210568,1.368695,8.938292,0.010567,-0.270835,-0.312596,-4.85625,23.2875,-25.087502
1782300239832,0.212961,1.371087,9.017255,0.052717,-0.245179,-0.338863,-4.85625,23.2875,-25.087502
1782300239838,0.212961,1.371087,9.017255,0.052717,-0.245179,-0.338863,-5.00625,22.856251,-24.7875
1782300239840,0.229711,1.328017,9.112968,0.094866,-0.221355,-0.355968,-5.00625,22.856251,-24.7875
1782300239849,0.229711,1.328017,9.112968,0.148622,-0.201197,-0.371239,-5.00625,22.856251,-24.7875
1782300239850,0.200997,1.579263,9.031612,0.148622,-0.201197,-0.371239,-6.4875,23.175001,-25.5375
1782300239859,0.200997,1.579263,9.031612,0.205433,-0.176151,-0.382846,-6.4875,23.175001,-25.5375
1782300239860,0.117248,1.777867,8.969399,0.205433,-0.176151,-0.382846,-5.6625,21.112501,-26.00625
1782300239876,0.29671,1.902294,8.8689,0.270184,-0.072304,-0.393841,-5.83125,20.8125,-25.106251
1782300239879,0.29671,1.902294,8.8689,0.270184,-0.072304,-0.393841,-4.93125,22.125,-26.306252
1782300239890,0.301496,1.969293,8.880865,0.277515,-0.066196,-0.403615,-5.68125,21.09375,-25.556252
1782300239892,0.289532,2.108077,9.060326,0.267741,-0.064974,-0.409724,-5.68125,21.09375,-25.556252
1782300239898,0.289532,2.108077,9.060326,0.267741,-0.064974,-0.409724,-6.0,22.425001,-26.00625
1782300239901,0.256032,2.18704,9.194324,0.246972,-0.053978,-0.409724,-6.0,22.425001,-26.00625
1782300239910,0.263211,2.246861,9.38575,0.220704,-0.056422,-0.404837,-7.1625,21.431252,-26.625002
1782300239920,0.267996,2.273181,9.634603,0.205433,-0.068639,-0.401782,-5.2125,20.6625,-25.556252
1782300239927,0.265603,2.289931,9.8356,0.207265,-0.090019,-0.401172,-5.2125,20.6625,-25.556252
1782300239929,0.265603,2.289931,9.8356,0.207265,-0.090019,-0.401172,-5.4375,19.78125,-26.94375
1782300239936,0.334995,2.333002,10.062919,0.217039,-0.10468,-0.400561,-5.4375,19.78125,-26.94375
1782300239940,0.334995,2.333002,10.062919,0.217039,-0.10468,-0.400561,-6.01875,19.5,-27.243752
1782300239944,0.380459,2.316252,10.333308,0.227424,-0.099793,-0.398117,-6.01875,19.5,-27.243752
1782300239949,0.380459,2.316252,10.333308,0.227424,-0.099793,-0.398117,-4.6875,19.78125,-26.94375
1782300239952,0.433101,2.246861,10.563018,0.232922,-0.063141,-0.396895,-4.6875,19.78125,-26.94375
1782300239959,0.433101,2.246861,10.563018,0.232922,-0.063141,-0.396895,-5.04375,21.543751,-26.925001
1782300239960,0.433101,2.246861,10.563018,0.223148,-0.018548,-0.39995,-5.04375,21.543751,-26.925001
1782300239961,0.433101,2.160719,10.790337,0.223148,-0.018548,-0.39995,-5.04375,21.543751,-26.925001
1782300239970,0.380459,2.062613,11.008084,0.194437,0.013217,-0.410335,-5.04375,21.543751,-26.925001
1782300239971,0.380459,2.062613,11.008084,0.194437,0.013217,-0.410335,-4.85625,19.331251,-26.025002
1782300239979,0.303888,1.9669,11.199509,0.194437,0.013217,-0.410335,-4.85625,19.331251,-26.025002
1782300239981,0.303888,1.9669,11.199509,0.152898,0.012606,-0.421941,-6.65625,19.650002,-26.643751
1782300239995,0.303888,1.9669,11.199509,0.152898,0.012606,-0.421941,-5.00625,19.481251,-26.175001
1782300239996,0.248854,1.794617,11.725931,0.109527,-0.01305,-0.433547,-5.00625,19.481251,-26.175001
1782300239999,0.248854,1.794617,11.725931,0.109527,-0.01305,-0.433547,-4.93125,19.5,-27.993752
1782300240004,0.222533,1.792224,11.907785,0.087536,-0.046648,-0.457371,-4.93125,19.5,-27.993752
1782300240009,0.222533,1.792224,11.907785,0.087536,-0.046648,-0.457371,-4.2,20.212502,-27.993752
1782300240012,0.222533,1.792224,11.907785,0.124188,-0.038707,-0.464701,-4.2,20.212502,-27.993752
1782300240013,0.239282,1.885544,11.955641,0.124188,-0.038707,-0.464701,-4.2,20.212502,-27.993752
1782300240019,0.239282,1.885544,11.955641,0.124188,-0.038707,-0.464701,-5.5875,19.931252,-27.093752
1782300240021,0.241675,2.024328,11.857536,0.186496,-0.024046,-0.466534,-5.5875,19.931252,-27.093752
1782300240030,0.272782,2.141576,11.663717,0.254913,-0.01977,-0.465312,-5.49375,20.212502,-25.725
1782300240040,0.323031,2.215754,11.469899,0.304393,-0.034431,-0.461036,-6.0375,20.231251,-27.243752
1782300240047,0.375673,2.28036,11.328722,0.314778,-0.058254,-0.454317,-6.0375,20.231251,-27.243752
1782300240049,0.375673,2.28036,11.328722,0.314778,-0.058254,-0.454317,-4.93125,18.75,-27.712502
1782300240057,0.421137,2.349752,11.249759,0.28118,-0.090019,-0.445765,-4.93125,18.75,-27.712502
1782300240060,0.421137,2.349752,11.249759,0.28118,-0.090019,-0.445765,-4.81875,19.331251,-27.093752
1782300240065,0.509671,2.361716,11.223438,0.204822,-0.123617,-0.437213,-4.81875,19.331251,-27.093752
1782300240070,0.509671,2.361716,11.223438,0.204822,-0.123617,-0.437213,-6.0,18.768751,-27.243752
1782300240073,0.636491,2.179862,11.290436,0.089368,-0.148051,-0.430493,-6.0,18.768751,-27.243752
1782300240079,0.636491,2.179862,11.290436,0.089368,-0.148051,-0.430493,-4.725,18.918751,-29.212502
1782300240081,0.775275,1.801795,11.374185,-0.059683,-0.148662,-0.424995,-4.725,18.918751,-29.212502
1782300240100,0.909273,0.830309,11.812072,-0.428034,-0.089408,-0.429882,-4.18125,19.481251,-28.312502
1782300240107,0.930808,0.397209,12.125532,-0.583194,-0.069861,-0.439045,-4.18125,19.481251,-28.312502
1782300240108,0.930808,0.397209,12.125532,-0.583194,-0.069861,-0.439045,-5.49375,17.868752,-27.862501
1782300240115,0.918844,0.002393,12.427027,-0.655276,-0.082078,-0.448208,-5.49375,17.868752,-27.862501
1782300240118,0.918844,0.002393,12.427027,-0.655276,-0.082078,-0.448208,-4.44375,18.6,-28.612501
1782300240123,0.87338,-0.263211,12.711773,-0.609461,-0.105291,-0.457371,-4.44375,18.6,-28.612501
1782300240129,0.87338,-0.263211,12.711773,-0.609461,-0.105291,-0.457371,-4.3875,17.137501,-28.63125
1782300240132,0.880559,-0.332602,12.702202,-0.427423,-0.095517,-0.46348,-4.3875,17.137501,-28.63125
1782300240139,0.880559,-0.332602,12.702202,-0.427423,-0.095517,-0.46348,-3.35625,17.700001,-28.331251
1782300240141,0.902094,-0.334995,12.192531,-0.147036,-0.024657,-0.478141,-3.35625,17.700001,-28.331251
1782300240149,0.902094,-0.334995,12.192531,-0.147036,-0.024657,-0.478141,-5.00625,17.137501,-28.181252
1782300240150,0.861416,-0.246461,11.058333,0.140681,0.051091,-0.496466,-5.00625,17.137501,-28.181252
1782300240160,0.851845,0.052642,10.175381,0.37281,0.066973,-0.497077,-5.68125,18.018751,-27.262501
1782300240168,0.792024,0.339781,9.577176,0.502924,0.106679,-0.495245,-5.68125,18.018751,-27.262501
1782300240170,0.792024,0.339781,9.577176,0.502924,0.106679,-0.495245,-4.5375,17.71875,-29.081251
1782300240176,0.792024,0.339781,9.577176,0.533467,0.155548,-0.494634,-4.5375,17.71875,-29.081251
1782300240177,0.708275,0.492921,9.077076,0.533467,0.155548,-0.494634,-4.5375,17.71875,-29.081251
1782300240178,0.708275,0.492921,9.077076,0.533467,0.155548,-0.494634,-4.5375,17.71875,-29.081251
1782300240184,0.591027,0.658026,8.550655,0.468105,0.197698,-0.494023,-4.5375,17.71875,-29.081251
1782300240197,0.519243,0.894916,7.875879,0.307447,0.178761,-0.495856,-4.9875,16.837502,-28.63125
1782300240198,0.519243,0.894916,7.875879,0.307447,0.178761,-0.495856,-4.9875,16.837502,-28.63125
1782300240201,0.323031,0.861416,8.14866,0.075929,0.081634,-0.495856,-4.9875,16.837502,-28.63125
1782300240208,0.323031,0.861416,8.14866,0.075929,0.081634,-0.495856,-5.60625,18.0375,-29.081251
1782300240209,0.323031,0.861416,8.14866,-0.126878,0.03643,-0.49158,-5.60625,18.0375,-29.081251
1782300240210,0.277567,0.854238,8.634404,-0.126878,0.03643,-0.49158,-5.60625,18.0375,-29.081251
1782300240221,0.356531,0.612563,9.034005,-0.249051,0.018715,-0.498299,-5.4,16.125,-28.950001
1782300240227,0.356531,0.612563,9.034005,-0.313191,0.019326,-0.505629,-5.4,16.125,-28.950001
1782300240228,0.4666,0.445065,9.079468,-0.313191,0.019326,-0.505629,-4.65,17.15625,-30.000002
1782300240237,0.512064,0.33021,9.101004,-0.337015,-0.013661,-0.519679,-4.65,17.15625,-30.000002
1782300240239,0.512064,0.33021,9.101004,-0.337015,-0.013661,-0.519679,-4.48125,15.225,-28.800001
1782300240244,0.512064,0.33021,9.101004,-0.340069,-0.047259,-0.528231,-4.48125,15.225,-28.800001
1782300240245,0.564706,0.200997,9.10579,-0.340069,-0.047259,-0.528231,-4.48125,15.225,-28.800001
1782300240250,0.564706,0.200997,9.10579,-0.340069,-0.047259,-0.528231,-4.51875,16.25625,-28.800001
1782300240253,0.595813,0.138784,9.129718,-0.327852,-0.079635,-0.525788,-4.51875,16.25625,-28.800001
1782300240259,0.595813,0.138784,9.129718,-0.327852,-0.079635,-0.525788,-5.7375,16.106251,-27.88125
1782300240262,0.648455,0.129212,9.055541,-0.311359,-0.09735,-0.516014,-5.7375,16.106251,-27.88125
1782300240269,0.648455,0.129212,9.055541,-0.311359,-0.09735,-0.516014,-4.5,16.556252,-29.550001
1782300240270,0.902094,0.284746,8.962221,-0.310137,-0.088187,-0.502575,-4.5,16.556252,-29.550001
1782300240280,0.902094,0.284746,8.962221,-0.333961,-0.087576,-0.487914,-4.5,16.556252,-29.550001
1782300240281,0.662812,0.344566,8.41905,-0.333961,-0.087576,-0.487914,-5.41875,17.15625,-29.700001
1782300240287,0.662812,0.344566,8.41905,-0.357174,-0.154771,-0.431715,-5.41875,17.15625,-29.700001
1782300240288,0.648455,0.497707,8.332908,-0.357174,-0.154771,-0.431715,-5.41875,17.15625,-29.700001
1782300240295,0.760918,0.638884,8.344872,-0.398102,-0.157825,-0.386511,-6.45,16.143751,-29.700001
1782300240298,0.760918,0.638884,8.344872,-0.398102,-0.157825,-0.386511,-4.78125,14.475,-28.050001
1782300240304,0.765703,0.504886,8.433406,-0.432921,-0.143775,-0.372461,-4.78125,14.475,-28.050001
1782300240309,0.765703,0.504886,8.433406,-0.432921,-0.143775,-0.372461,-7.03125,15.562501,-29.868752
1782300240312,0.662812,0.244068,8.569797,-0.443306,-0.109567,-0.330922,-7.03125,15.562501,-29.868752
1782300240318,0.662812,0.244068,8.569797,-0.443306,-0.109567,-0.330922,-8.325001,16.875,-28.181252
1782300240321,0.739382,0.368495,8.722938,-0.426812,-0.060698,-0.28022,-8.325001,16.875,-28.181252
1782300240329,0.739382,0.368495,8.722938,-0.426812,-0.060698,-0.28022,-6.20625,17.456251,-28.63125
1782300240330,0.571885,0.492921,8.77558,-0.374889,-0.025268,-0.275333,-6.20625,17.456251,-28.63125
1782300240341,0.334995,0.552742,8.785151,-0.286313,-0.022213,-0.274723,-8.26875,17.19375,-30.000002
1782300240347,0.334995,0.552742,8.785151,-0.180023,-0.024046,-0.272279,-8.26875,17.19375,-30.000002
1782300240348,0.210568,0.600598,8.694224,-0.180023,-0.024046,-0.272279,-8.26875,17.19375,-30.000002
1782300240349,0.210568,0.600598,8.694224,-0.180023,-0.024046,-0.272279,-7.85625,16.59375,-28.331251
1782300240355,0.210568,0.600598,8.694224,-0.078619,-0.016105,-0.276555,-7.85625,16.59375,-28.331251
1782300240356,0.160319,0.705883,8.567404,-0.078619,-0.016105,-0.276555,-7.85625,16.59375,-28.331251
1782300240358,0.160319,0.705883,8.567404,-0.078619,-0.016105,-0.276555,-6.54375,17.887501,-28.1625
1782300240364,0.117248,0.863809,8.38555,0.007513,-0.005109,-0.289383,-6.54375,17.887501,-28.1625
1782300240370,0.117248,0.863809,8.38555,0.007513,-0.005109,-0.289383,-7.06875,17.025002,-29.85
1782300240373,0.002393,1.024128,8.143875,0.063101,0.01566,-0.287551,-7.06875,17.025002,-29.85
1782300240378,0.002393,1.024128,8.143875,0.063101,0.01566,-0.287551,-6.6375,18.056252,-30.150002
1782300240381,0.198604,1.18684,7.916557,0.075929,0.028489,-0.278388,-6.6375,18.056252,-30.150002
1782300240390,0.380459,1.361516,7.780166,0.040499,0.026656,-0.277166,-8.00625,16.44375,-28.181252
1782300240402,0.471386,1.533799,7.71556,-0.028528,-0.003887,-0.280831,-7.81875,17.775002,-30.6
1782300240407,0.382852,1.57687,7.832808,-0.104276,-0.042372,-0.27289,-7.81875,17.775002,-30.6
1782300240408,0.382852,1.57687,7.832808,-0.104276,-0.042372,-0.27289,-7.275,17.90625,-29.231251
1782300240415,0.392423,1.543371,8.177374,-0.16414,-0.065585,-0.255786,-7.275,17.90625,-29.231251
1782300240419,0.392423,1.543371,8.177374,-0.16414,-0.065585,-0.255786,-7.2,17.925001,-31.500002
1782300240425,0.397209,1.4668,8.517155,-0.197738,-0.06253,-0.243568,-7.2,17.925001,-31.500002
1782300240430,0.397209,1.4668,8.517155,-0.197738,-0.06253,-0.243568,-6.9,16.44375,-30.000002
1782300240433,0.378066,1.416551,8.77558,-0.202625,-0.046037,-0.232573,-6.9,16.44375,-30.000002
1782300240439,0.378066,1.416551,8.77558,-0.202625,-0.046037,-0.232573,-6.31875,17.75625,-30.150002
1782300240441,0.378066,1.416551,8.77558,-0.185521,-0.028933,-0.220966,-6.31875,17.75625,-30.150002
1782300240442,0.404387,1.387837,8.94547,-0.185521,-0.028933,-0.220966,-6.31875,17.75625,-30.150002
1782300240448,0.404387,1.387837,8.94547,-0.185521,-0.028933,-0.220966,-8.08125,17.0625,-31.368752
1782300240450,0.404387,1.361516,9.101004,-0.159864,-0.011218,-0.210582,-8.08125,17.0625,-31.368752
1782300240460,0.404387,1.361516,9.101004,-0.132375,0.005276,-0.203251,-8.08125,17.0625,-31.368752
1782300240461,0.411565,1.31366,9.175182,-0.132375,0.005276,-0.203251,-8.94375,14.700001,-30.487501
1782300240468,0.435494,1.268196,9.261323,-0.109163,0.021158,-0.199586,-8.94375,14.700001,-30.487501
1782300240469,0.435494,1.268196,9.261323,-0.109163,0.021158,-0.199586,-8.137501,17.775002,-30.150002
1782300240476,0.435494,1.268196,9.261323,-0.095113,0.035208,-0.197754,-8.137501,17.775002,-30.150002
1782300240477,0.473779,1.272982,9.34268,-0.095113,0.035208,-0.197754,-8.137501,17.775002,-30.150002
1782300240478,0.473779,1.272982,9.34268,-0.095113,0.035208,-0.197754,-7.18125,17.493752,-31.518751
1782300240484,0.473779,1.272982,9.34268,-0.095113,0.048036,-0.197143,-7.18125,17.493752,-31.518751
1782300240485,0.51685,1.29691,9.414464,-0.095113,0.048036,-0.197143,-7.18125,17.493752,-31.518751
1782300240490,0.51685,1.29691,9.414464,-0.095113,0.048036,-0.197143,-7.3875,18.075001,-30.6
1782300240493,0.538385,1.330409,9.457534,-0.094502,0.055367,-0.196532,-7.3875,18.075001,-30.6
1782300240514,0.5001,1.543371,9.586747,-0.05785,0.073082,-0.186758,-7.74375,17.0625,-32.118752
1782300240519,0.5001,1.543371,9.586747,-0.008981,0.087132,-0.175152,-7.74375,17.0625,-32.118752
1782300240520,0.497707,1.648655,9.608283,-0.008981,0.087132,-0.175152,-10.21875,16.931252,-30.450001
1782300240527,0.48335,1.761117,9.581961,0.053327,0.108512,-0.158047,-10.21875,16.931252,-30.450001
1782300240528,0.48335,1.761117,9.581961,0.053327,0.108512,-0.158047,-9.075001,17.493752,-29.231251
1782300240536,0.490529,1.911865,9.486249,0.11197,0.133557,-0.140332,-9.075001,17.493752,-29.231251
1782300240539,0.490529,1.911865,9.486249,0.11197,0.133557,-0.140332,-8.15625,17.043751,-29.081251
1782300240545,0.449851,2.074577,9.390536,0.158396,0.137833,-0.123839,-8.15625,17.043751,-29.081251
1782300240550,0.449851,2.074577,9.390536,0.158396,0.137833,-0.123839,-8.8125,16.612501,-31.368752
1782300240553,0.449851,2.074577,9.390536,0.191994,0.109734,-0.106735,-8.8125,16.612501,-31.368752
1782300240554,0.428315,2.234896,9.316358,0.191994,0.109734,-0.106735,-8.8125,16.612501,-31.368752
1782300240559,0.428315,2.234896,9.316358,0.191994,0.109734,-0.106735,-8.19375,16.9125,-32.268753
1782300240561,0.428315,2.234896,9.316358,0.211541,0.063308,-0.08902,-8.19375,16.9125,-32.268753
1782300240562,0.430708,2.380858,9.282858,0.211541,0.063308,-0.08902,-8.19375,16.9125,-32.268753
1782300240569,0.430708,2.380858,9.282858,0.211541,0.063308,-0.08902,-8.55,17.793751,-31.668751
1782300240570,0.457029,2.48375,9.3355,0.215207,0.00161,-0.071305,-8.55,17.793751,-31.668751
1782300240580,0.457029,2.48375,9.3355,0.202378,-0.050313,-0.056033,-8.55,17.793751,-31.668751
1782300240581,0.509671,2.562713,9.450356,0.202378,-0.050313,-0.056033,-8.8125,17.8125,-32.418751
1782300240587,0.509671,2.562713,9.450356,0.179776,-0.088798,-0.045037,-8.8125,17.8125,-32.418751
1782300240589,0.535992,2.603391,9.627425,0.179776,-0.088798,-0.045037,-9.150001,17.8125,-31.668751
1782300240596,0.535992,2.603391,9.627425,0.151066,-0.113232,-0.035874,-9.150001,17.8125,-31.668751
1782300240611,0.543171,2.553142,9.998313,0.120523,-0.121784,-0.026711,-8.6625,17.212502,-31.81875
1782300240613,0.535992,2.435894,10.223238,0.089979,-0.121173,-0.015716,-8.6625,17.212502,-31.81875
1782300240618,0.535992,2.435894,10.223238,0.089979,-0.121173,-0.015716,-9.88125,17.081251,-31.668751
1782300240622,0.521635,2.256432,10.541483,0.063101,-0.110789,-0.001666,-9.88125,17.081251,-31.668751
1782300240629,0.521635,2.256432,10.541483,0.063101,-0.110789,-0.001666,-9.6,19.143751,-33.168751
1782300240630,0.473779,2.029114,10.948263,0.044164,-0.094295,0.008108,-9.6,19.143751,-33.168751
1782300240639,0.413958,1.775474,11.390935,0.037445,-0.094906,0.011162,-8.8125,18.112501,-32.71875
1782300240647,0.375673,1.533799,11.721145,0.042943,-0.108956,0.007497,-8.8125,18.112501,-32.71875
1782300240648,0.375673,1.533799,11.721145,0.042943,-0.108956,0.007497,-8.212501,17.512501,-32.268753
1782300240656,0.356531,1.31366,11.893428,0.056382,-0.141943,-0.004109,-8.212501,17.512501,-32.268753
1782300240659,0.356531,1.31366,11.893428,0.056382,-0.141943,-0.004109,-8.212501,17.512501,-32.268753
1782300240664,0.356531,1.31366,11.893428,0.08326,-0.193255,-0.024268,-8.212501,17.512501,-32.268753
1782300240665,0.356531,1.196411,12.046568,0.08326,-0.193255,-0.024268,-8.212501,17.512501,-32.268753
1782300240669,0.356531,1.196411,12.046568,0.08326,-0.193255,-0.024268,-7.8,18.525002,-32.118752
1782300240673,0.27996,1.198804,12.156639,0.127242,-0.234794,-0.051146,-7.8,18.525002,-32.118752
1782300240679,0.27996,1.198804,12.156639,0.127242,-0.234794,-0.051146,-9.46875,17.212502,-30.750002
1782300240682,0.22014,1.371087,12.053747,0.184663,-0.242735,-0.07497,-9.46875,17.212502,-30.750002
1782300240689,0.22014,1.371087,12.053747,0.184663,-0.242735,-0.07497,-7.78125,18.525002,-32.418751
1782300240690,0.22014,1.371087,12.053747,0.252469,-0.206084,-0.0823,-7.78125,18.525002,-32.418751
1782300240691,0.181855,1.600798,11.71636,0.252469,-0.206084,-0.0823,-7.78125,18.525002,-32.418751
1782300240700,0.227318,1.765903,11.177974,0.312945,-0.132169,-0.067639,-9.88125,17.38125,-31.668751
1782300240722,0.174676,1.883151,10.448164,0.352651,0.054145,0.004443,-8.212501,17.212502,-31.81875
1782300240724,0.174676,1.883151,10.448164,0.323941,0.14272,0.047814,-8.212501,17.212502,-31.81875
1782300240725,-0.002393,1.878366,10.419449,0.323941,0.14272,0.047814,-8.212501,17.212502,-31.81875
1782300240729,-0.002393,1.878366,10.419449,0.323941,0.14272,0.047814,-8.45625,16.331251,-32.737503
1782300240733,-0.112463,1.830509,10.464913,0.263465,0.191589,0.095462,-8.45625,16.331251,-32.737503
1782300240740,-0.112463,1.830509,10.464913,0.263465,0.191589,0.095462,-10.1625,17.231251,-32.568752
1782300240742,-0.239282,1.694118,10.460127,0.150455,0.187313,0.141276,-10.1625,17.231251,-32.568752
1782300240749,-0.239282,1.694118,10.460127,0.150455,0.187313,0.141276,-8.775001,18.112501,-33.9375
1782300240750,-0.239282,1.694118,10.460127,-0.02975,0.162879,0.167544,-8.775001,18.112501,-33.9375
1782300240751,-0.488136,1.5003,10.498413,-0.02975,0.162879,0.167544,-8.775001,18.112501,-33.9375
1782300240760,-0.488136,1.5003,10.498413,-0.209344,0.037041,0.223743,-8.775001,18.112501,-33.9375
1782300240761,0.047856,1.086342,10.814265,-0.209344,0.037041,0.223743,-9.543751,16.63125,-32.4375
1782300240768,0.29671,0.61017,11.53929,-0.379165,0.024212,0.275667,-9.543751,16.63125,-32.4375
1782300240769,0.29671,0.61017,11.53929,-0.379165,0.024212,0.275667,-8.681251,18.993752,-33.018753
1782300240777,0.150748,0.019143,11.843179,-0.526994,0.027878,0.28483,-8.681251,18.993752,-33.018753
1782300240779,0.150748,0.019143,11.843179,-0.526994,0.027878,0.28483,-9.075001,17.081251,-33.1875
1782300240785,0.150748,0.019143,11.843179,-0.611904,-0.025268,0.308042,-9.075001,17.081251,-33.1875
1782300240786,0.107677,-0.241675,12.027426,-0.611904,-0.025268,0.308042,-9.075001,17.081251,-33.1875
1782300240790,0.107677,-0.241675,12.027426,-0.611904,-0.025268,0.308042,-8.925,17.53125,-33.337502
1782300240793,0.107677,-0.241675,12.027426,-0.626565,-0.105902,0.322092,-8.925,17.53125,-33.337502
1782300240794,0.095713,-0.354138,12.127924,-0.626565,-0.105902,0.322092,-8.925,17.53125,-33.337502
1782300240799,0.095713,-0.354138,12.127924,-0.626565,-0.105902,0.322092,-8.625,17.512501,-33.337502
1782300240802,0.095713,-0.354138,12.127924,-0.554483,-0.20364,0.330644,-8.625,17.512501,-33.337502
1782300240803,0.035892,-0.461815,11.986748,-0.554483,-0.20364,0.330644,-8.625,17.512501,-33.337502
1782300240819,-0.01675,-0.459422,11.802501,-0.211177,-0.272057,0.352636,-9.731251,19.743752,-34.068752
1782300240820,-0.081356,-0.366102,11.431613,-0.211177,-0.272057,0.352636,-7.4625,19.725,-34.068752
1782300240829,-0.208176,-0.179462,10.902799,-0.012646,-0.209138,0.358744,-7.93125,19.425001,-33.618752
1782300240837,-0.306281,0.18664,10.350057,0.14679,-0.126671,0.364853,-7.93125,19.425001,-33.618752
1782300240839,-0.306281,0.18664,10.350057,0.14679,-0.126671,0.364853,-7.35,19.556252,-33.168751
1782300240845,-0.380459,0.48335,9.864315,0.246972,-0.050924,0.367907,-7.35,19.556252,-33.168751
1782300240850,-0.380459,0.48335,9.864315,0.246972,-0.050924,0.367907,-9.13125,18.112501,-32.71875
1782300240853,-0.351745,0.725025,9.438392,0.276904,0.008941,0.380735,-9.13125,18.112501,-32.71875
1782300240859,-0.351745,0.725025,9.438392,0.276904,0.008941,0.380735,-9.900001,18.5625,-32.418751
1782300240862,-0.445065,1.019342,8.976577,0.243306,0.032765,0.385011,-9.900001,18.5625,-32.418751
1782300240876,-0.37328,1.009771,8.730116,0.155342,0.035208,0.384401,-11.025001,17.85,-34.237503
1782300240881,-0.284746,0.952343,8.799509,0.033169,0.021769,0.375848,-8.625,18.262501,-34.087502
1782300240889,-0.33021,0.808774,9.036397,-0.067624,0.010773,0.343473,-8.925,18.712502,-34.837502
1782300240896,-0.397209,0.648455,9.254144,-0.132375,0.034597,0.317205,-8.925,18.712502,-34.837502
1782300240898,-0.397209,0.648455,9.254144,-0.132375,0.034597,0.317205,-8.7375,20.456251,-33.0
1782300240905,-0.540778,0.62692,8.957434,-0.177579,0.068806,0.281164,-8.7375,20.456251,-33.0
1782300240909,-0.540778,0.62692,8.957434,-0.177579,0.068806,0.281164,-8.418751,17.38125,-35.006252
1782300240925,-0.404387,0.29671,8.854543,-0.207512,0.03643,0.23535,-6.95625,17.793751,-34.237503
1782300240929,-0.404387,0.29671,8.854543,-0.207512,0.03643,0.23535,-8.64375,17.962502,-33.637501
1782300240930,-0.236889,0.291924,8.931114,-0.22767,-0.057033,0.146774,-8.64375,17.962502,-33.637501
1782300240939,-0.236889,0.291924,8.931114,-0.19896,-0.06925,0.113177,-8.7375,18.862501,-35.756252
1782300240940,-0.023928,0.311067,8.957434,-0.19896,-0.06925,0.113177,-8.7375,18.862501,-35.756252
1782300240949,0.184247,0.397209,8.878472,-0.145814,-0.057033,0.088742,-8.83125,19.875,-33.918751
1782300240957,0.354138,0.476172,8.756438,-0.0719,-0.040539,0.071027,-8.83125,19.875,-33.918751
1782300240958,0.354138,0.476172,8.756438,-0.0719,-0.040539,0.071027,-8.025001,18.543751,-34.237503
1782300240966,0.464208,0.543171,8.636797,0.006291,-0.006331,0.060031,-8.025001,18.543751,-34.237503
1782300240970,0.464208,0.543171,8.636797,0.006291,-0.006331,0.060031,-7.425,18.243752,-34.087502
1782300240974,0.543171,0.674776,8.462121,0.071653,0.041928,0.054534,-7.425,18.243752,-34.087502
1782300240979,0.543171,0.674776,8.462121,0.071653,0.041928,0.054534,-8.19375,17.962502,-33.337502
1782300240983,0.492921,0.818345,8.251552,0.110138,0.090186,0.049647,-8.19375,17.962502,-33.337502
1782300240989,0.492921,0.818345,8.251552,0.110138,0.090186,0.049647,-8.8125,19.143751,-34.21875
1782300240991,0.421137,0.92363,7.981163,0.114414,0.133557,0.051479,-8.8125,19.143751,-34.21875
1782300241000,0.421137,0.92363,7.981163,0.087536,0.160435,0.053923,-8.8125,19.143751,-34.21875
1782300241001,0.294317,0.971486,7.744274,0.087536,0.160435,0.053923,-9.825001,18.13125,-34.237503
1782300241009,0.294317,0.971486,7.744274,0.038667,0.153716,0.057588,-9.825001,18.13125,-34.237503
1782300241010,0.174676,0.993021,7.624632,0.038667,0.153716,0.057588,-7.3125,19.125,-33.46875
1782300241027,0.119641,1.062413,8.038591,-0.051741,0.11462,0.066751,-7.40625,18.69375,-35.137501
1782300241029,0.119641,1.062413,8.038591,-0.051741,0.11462,0.066751,-7.74375,17.362501,-32.71875
1782300241033,0.119641,1.062413,8.038591,-0.046854,0.11462,0.071638,-7.74375,17.362501,-32.71875
1782300241034,0.11007,1.088734,8.158232,-0.046854,0.11462,0.071638,-7.74375,17.362501,-32.71875
1782300241039,0.11007,1.088734,8.158232,-0.046854,0.11462,0.071638,-6.975,18.09375,-33.487503
1782300241043,0.098106,1.105484,8.213267,-0.021198,0.101181,0.077136,-6.975,18.09375,-33.487503
1782300241049,0.098106,1.105484,8.213267,-0.021198,0.101181,0.077136,-7.25625,18.543751,-34.6875
1782300241051,0.088534,1.143769,8.251552,0.0124,0.083466,0.082633,-7.25625,18.543751,-34.6875
1782300241060,0.088534,1.143769,8.251552,0.045997,0.063919,0.08752,-7.25625,18.543751,-34.6875
1782300241061,0.081356,1.179662,8.340086,0.045997,0.063919,0.08752,-7.14375,18.675001,-33.618752
1782300241070,0.021535,1.277767,8.383157,0.074097,0.060253,0.093629,-7.275,19.575001,-34.987503
1782300241077,0.248854,1.270589,8.239588,0.088758,0.038262,0.097905,-7.275,19.575001,-34.987503
1782300241078,0.248854,1.270589,8.239588,0.088758,0.038262,0.097905,-7.3875,18.993752,-35.587502
1782300241086,0.215354,1.225125,8.349658,0.075929,0.000389,0.097905,-7.3875,18.993752,-35.587502
1782300241090,0.215354,1.225125,8.349658,0.075929,0.000389,0.097905,-9.0375,17.831251,-35.306252
1782300241094,0.07657,1.244268,8.471692,0.039888,-0.017937,0.093018,-9.0375,17.831251,-35.306252
1782300241099,0.07657,1.244268,8.471692,0.039888,-0.017937,0.093018,-6.80625,18.243752,-34.387501
1782300241102,0.07657,1.244268,8.471692,0.007513,-0.042372,0.09424,-6.80625,18.243752,-34.387501
1782300241103,0.002393,1.332802,8.639189,0.007513,-0.042372,0.09424,-6.80625,18.243752,-34.387501
1782300241109,0.002393,1.332802,8.639189,0.007513,-0.042372,0.09424,-6.39375,19.706251,-34.368752
1782300241111,0.031107,1.383052,8.787544,0.007513,-0.042372,0.09424,-6.39375,19.706251,-34.368752
1782300241112,0.031107,1.383052,8.787544,-0.012646,-0.070472,0.100959,-6.39375,19.706251,-34.368752
1782300241125,0.055035,1.337588,8.892828,-0.018755,-0.105291,0.102792,-6.39375,19.706251,-34.368752
1782300241126,0.055035,1.337588,8.892828,-0.018755,-0.105291,0.102792,-7.21875,17.362501,-34.706253
1782300241130,0.047856,1.26341,8.993327,-0.0157,-0.144386,0.096683,-7.05,17.962502,-35.90625
1782300241136,0.047856,1.26341,8.993327,0.002015,-0.180427,0.088131,-7.05,17.962502,-35.90625
1782300241137,0.028714,1.265803,9.189539,0.002015,-0.180427,0.088131,-7.05,17.962502,-35.90625
1782300241138,0.028714,1.265803,9.189539,0.002015,-0.180427,0.088131,-7.05,17.962502,-35.90625
1782300241145,0.009571,1.282553,9.373786,0.035612,-0.192645,0.079579,-7.05,17.962502,-35.90625
1782300241149,0.009571,1.282553,9.373786,0.035612,-0.192645,0.079579,-5.7,18.09375,-35.756252
1782300241155,0.023928,1.344766,9.46232,0.080816,-0.16821,0.069194,-5.7,18.09375,-35.756252
1782300241159,0.023928,1.344766,9.46232,0.080816,-0.16821,0.069194,-8.71875,17.081251,-34.706253
1782300241162,-0.01675,1.430908,9.47907,0.126631,-0.125449,0.060642,-8.71875,17.081251,-34.706253
1782300241168,-0.01675,1.430908,9.47907,0.126631,-0.125449,0.060642,-7.81875,17.962502,-35.606251
1782300241171,-0.01675,1.430908,9.47907,0.172446,-0.086354,0.055755,-7.81875,17.962502,-35.606251
1782300241172,-0.059821,1.536192,9.467106,0.172446,-0.086354,0.055755,-7.81875,17.962502,-35.606251
1782300241180,-0.102891,1.627119,9.455142,0.212152,-0.063752,0.050258,-9.28125,16.21875,-35.175003
1782300241189,-0.129212,1.689333,9.471892,0.247582,-0.050924,0.042316,-7.1625,16.63125,-35.775002
1782300241197,-0.119641,1.720439,9.534105,0.274461,-0.049702,0.032542,-7.1625,16.63125,-35.775002
1782300241198,-0.119641,1.720439,9.534105,0.274461,-0.049702,0.032542,-7.21875,18.5625,-36.056252
1782300241206,-0.071785,1.806581,9.565212,0.286067,-0.054589,0.020936,-7.21875,18.5625,-36.056252
1782300241209,-0.071785,1.806581,9.565212,0.286067,-0.054589,0.020936,-6.75,17.212502,-35.15625
1782300241214,-0.043071,1.849652,9.617854,0.28118,-0.072304,0.003832,-6.75,17.212502,-35.15625
1782300241220,-0.043071,1.849652,9.617854,0.28118,-0.072304,0.003832,-7.03125,16.181252,-34.856251
1782300241235,-0.021535,1.899901,9.938492,0.235976,-0.129115,-0.04015,-6.4125,16.63125,-35.775002
1782300241238,-0.021535,1.899901,9.938492,0.235976,-0.129115,-0.04015,-7.3125,16.481251,-35.625
1782300241239,-0.021535,1.899901,9.938492,0.209098,-0.170043,-0.06825,-7.3125,16.481251,-35.625
1782300241240,0.0335,1.923829,10.180167,0.209098,-0.170043,-0.06825,-7.3125,16.481251,-35.625
1782300241249,0.122034,1.931008,10.452949,0.180998,-0.20364,-0.095739,-7.14375,16.050001,-35.775002
1782300241257,0.224925,1.883151,10.661125,0.155953,-0.216468,-0.12445,-7.14375,16.050001,-35.775002
1782300241259,0.224925,1.883151,10.661125,0.155953,-0.216468,-0.12445,-7.3125,16.5,-35.925003
1782300241266,0.361316,1.698904,10.965013,0.131518,-0.200586,-0.146441,-7.3125,16.5,-35.925003
1782300241269,0.361316,1.698904,10.965013,0.131518,-0.200586,-0.146441,-8.325001,16.06875,-36.525002
1782300241274,0.437887,1.588834,11.261723,0.106473,-0.150495,-0.165378,-8.325001,16.06875,-36.525002
1782300241280,0.437887,1.588834,11.261723,0.106473,-0.150495,-0.165378,-6.05625,15.3,-36.09375
1782300241282,0.437887,1.588834,11.261723,0.086925,-0.077191,-0.18126,-6.05625,15.3,-36.09375
1782300241283,0.425922,1.469193,11.548862,0.086925,-0.077191,-0.18126,-6.05625,15.3,-36.09375
1782300241289,0.425922,1.469193,11.548862,0.086925,-0.077191,-0.18126,-6.3375,14.118751,-35.34375
1782300241291,0.425922,1.430908,11.771394,0.079595,-0.008774,-0.190423,-6.3375,14.118751,-35.34375
1782300241299,0.425922,1.430908,11.771394,0.079595,-0.008774,-0.190423,-7.8,16.200001,-34.40625
1782300241300,0.37328,1.562513,11.960427,0.100364,0.046204,-0.197143,-7.8,16.200001,-34.40625
1782300241309,0.37328,1.562513,11.960427,0.162061,0.081023,-0.201419,-7.8,16.200001,-34.40625
1782300241310,0.33021,1.770689,12.003498,0.162061,0.081023,-0.201419,-7.66875,13.70625,-35.943752
1782300241317,0.318245,1.978864,11.857536,0.264076,0.102403,-0.203862,-7.66875,13.70625,-35.943752
1782300241318,0.318245,1.978864,11.857536,0.264076,0.102403,-0.203862,-5.925,15.731251,-35.625
1782300241333,0.342174,2.139184,11.601504,0.379529,0.120729,-0.210582,-8.606251,15.337501,-36.84375
1782300241334,0.392423,2.285146,11.273687,0.463218,0.134779,-0.222188,-8.606251,15.337501,-36.84375
1782300241341,0.392423,2.285146,11.273687,0.463218,0.134779,-0.222188,-7.06875,15.618751,-37.912502
1782300241342,0.433101,2.419144,10.907585,0.480933,0.123783,-0.240514,-7.06875,15.618751,-37.912502
1782300241349,0.433101,2.419144,10.907585,0.480933,0.123783,-0.240514,-6.3,13.837501,-36.5625
1782300241351,0.526421,2.586641,10.57259,0.421679,0.057199,-0.257618,-6.3,13.837501,-36.5625
1782300241359,0.526421,2.586641,10.57259,0.421679,0.057199,-0.257618,-6.99375,12.075001,-36.581253
1782300241360,0.722632,2.579463,10.440984,0.284845,-0.042372,-0.268003,-6.99375,12.075001,-36.581253
1782300241370,1.036092,2.287539,10.651553,0.081427,-0.132169,-0.273501,-6.99375,12.075001,-36.581253
1782300241371,1.036092,2.287539,10.651553,0.081427,-0.132169,-0.273501,-7.2375,14.437501,-35.943752
1782300241377,1.354338,1.646262,11.14926,-0.165362,-0.159047,-0.288162,-7.2375,14.437501,-35.943752
1782300241378,1.354338,1.646262,11.14926,-0.165362,-0.159047,-0.288162,-6.76875,13.087501,-35.34375
1782300241386,1.258625,1.028914,11.967605,-0.432921,-0.119952,-0.301601,-6.76875,13.087501,-35.34375
1782300241389,1.258625,1.028914,11.967605,-0.432921,-0.119952,-0.301601,-5.90625,14.700001,-35.643753
1782300241395,0.937986,0.524028,12.563418,-0.663828,-0.044815,-0.310764,-5.90625,14.700001,-35.643753
1782300241399,0.937986,0.524028,12.563418,-0.663828,-0.044815,-0.310764,-7.85625,13.5375,-35.043751
1782300241403,0.653241,0.050249,12.85295,-0.805548,-0.022824,-0.311985,-7.85625,13.5375,-35.043751
1782300241409,0.653241,0.050249,12.85295,-0.805548,-0.022824,-0.311985,-8.606251,13.856251,-35.34375
1782300241411,0.361316,-0.253639,13.202302,-0.814101,-0.056422,-0.307098,-8.606251,13.856251,-35.34375
1782300241419,0.27996,-0.39003,13.558833,-0.637561,-0.051535,-0.302211,-7.63125,16.35,-35.006252
1782300241430,0.332602,-0.315853,12.754844,-0.281426,0.032154,-0.292438,-7.6875,13.9875,-35.943752
1782300241437,0.404387,-0.090927,11.441185,0.117468,0.074914,-0.279609,-7.6875,13.9875,-35.943752
1782300241438,0.404387,-0.090927,11.441185,0.117468,0.074914,-0.279609,-5.625,14.55,-34.725002
1782300241446,0.485743,0.117248,10.424235,0.420457,0.051701,-0.275944,-5.625,14.55,-34.725002
1782300241449,0.485743,0.117248,10.424235,0.420457,0.051701,-0.275944,-7.5375,13.837501,-35.793751
1782300241454,0.485743,0.117248,10.424235,0.590888,0.052312,-0.267392,-7.5375,13.837501,-35.793751
1782300241455,0.430708,0.380459,9.957634,0.590888,0.052312,-0.267392,-7.5375,13.837501,-35.793751
1782300241460,0.430708,0.380459,9.957634,0.590888,0.052312,-0.267392,-7.95,14.00625,-37.012501
1782300241463,0.430708,0.380459,9.957634,0.635482,0.113399,-0.26617,-7.95,14.00625,-37.012501
1782300241464,0.248854,0.684347,9.476677,0.635482,0.113399,-0.26617,-7.95,14.00625,-37.012501
1782300241470,0.248854,0.684347,9.476677,0.635482,0.113399,-0.26617,-8.45625,14.437501,-35.943752
1782300241472,0.29671,0.634098,8.696617,0.580504,0.132336,-0.248455,-8.45625,14.437501,-35.943752
1782300241479,0.29671,0.634098,8.696617,0.580504,0.132336,-0.248455,-8.175,12.093751,-37.631252
1782300241480,0.29671,0.634098,8.696617,0.416792,0.070638,-0.206306,-8.175,12.093751,-37.631252
1782300241481,0.354138,0.624527,7.990734,0.416792,0.070638,-0.206306,-8.175,12.093751,-37.631252
1782300241491,0.232104,0.734597,7.997913,0.182831,-0.058865,-0.169043,-8.56875,13.125001,-35.8125
1782300241498,0.229711,0.849452,8.220445,-0.052963,-0.157825,-0.137278,-8.56875,13.125001,-35.8125
1782300241499,0.229711,0.849452,8.220445,-0.052963,-0.157825,-0.137278,-6.9375,13.9875,-35.643753
1782300241506,0.325424,0.844666,8.653546,-0.23439,-0.21097,-0.134835,-6.9375,13.9875,-35.643753
1782300241509,0.325424,0.844666,8.653546,-0.23439,-0.21097,-0.134835,-7.2375,12.95625,-34.893753
1782300241515,0.361316,0.643669,9.002899,-0.359006,-0.174929,-0.133002,-7.2375,12.95625,-34.893753
1782300241520,0.361316,0.643669,9.002899,-0.359006,-0.174929,-0.133002,-7.03125,13.106251,-36.5625
1782300241538,0.569492,0.404387,9.041183,-0.472627,-0.047259,-0.09635,-6.76875,12.7875,-34.743752
1782300241540,0.528814,0.346959,9.10579,-0.459188,-0.030765,-0.092074,-6.76875,12.7875,-34.743752
1782300241549,0.528814,0.346959,9.10579,-0.459188,-0.030765,-0.092074,-7.96875,12.225,-34.443752
1782300241550,0.524028,0.299103,9.191931,-0.407875,-0.020381,-0.082911,-7.96875,12.225,-34.443752
1782300241557,0.526421,0.291924,9.151253,-0.332128,0.008941,-0.078024,-7.96875,12.225,-34.443752
1782300241558,0.526421,0.291924,9.151253,-0.332128,0.008941,-0.078024,-7.66875,13.70625,-35.943752
1782300241566,0.507278,0.308674,8.950256,-0.252716,0.04376,-0.074359,-7.66875,13.70625,-35.943752
1782300241568,0.507278,0.308674,8.950256,-0.252716,0.04376,-0.074359,-7.8375,15.337501,-36.84375
1782300241574,0.507278,0.308674,8.950256,-0.190408,0.070027,-0.071305,-7.8375,15.337501,-36.84375
1782300241575,0.480957,0.375673,8.739687,-0.190408,0.070027,-0.071305,-7.8375,15.337501,-36.84375
1782300241580,0.480957,0.375673,8.739687,-0.190408,0.070027,-0.071305,-5.53125,13.81875,-36.862503
1782300241583,0.435494,0.413958,8.574583,-0.150701,0.088964,-0.065196,-5.53125,13.81875,-36.862503
1782300241589,0.435494,0.413958,8.574583,-0.150701,0.088964,-0.065196,-6.65625,13.968751,-35.193752
1782300241591,0.435494,0.413958,8.574583,-0.131765,0.102403,-0.061531,-6.65625,13.968751,-35.193752
1782300241592,0.370888,0.425922,8.500406,-0.131765,0.102403,-0.061531,-6.65625,13.968751,-35.193752
1782300241599,0.370888,0.425922,8.500406,-0.131765,0.102403,-0.061531,-6.65625,13.968751,-35.193752
1782300241600,0.323031,0.433101,8.466906,-0.127489,0.109123,-0.065196,-6.65625,13.968751,-35.193752
1782300241610,0.323031,0.433101,8.466906,-0.13543,0.101181,-0.071305,-6.65625,13.968751,-35.193752
1782300241611,0.265603,0.488136,8.435799,-0.13543,0.101181,-0.071305,-8.4375,14.00625,-35.943752
1782300241618,0.263211,0.562313,8.390336,-0.147647,0.084077,-0.077413,-8.4375,14.00625,-35.943752
1782300241619,0.263211,0.562313,8.390336,-0.147647,0.084077,-0.077413,-7.5375,13.106251,-35.043751
1782300241627,0.284746,0.636491,8.366408,-0.154977,0.061475,-0.083522,-7.5375,13.106251,-35.043751
1782300241629,0.284746,0.636491,8.366408,-0.154977,0.061475,-0.083522,-4.35,13.218751,-35.193752
1782300241645,0.284746,0.636491,8.366408,-0.147647,0.041928,-0.090241,-4.35,13.218751,-35.193752
1782300241646,0.265603,0.820738,8.342479,-0.116493,0.026045,-0.097572,-5.49375,12.7875,-36.862503
1782300241649,0.265603,0.820738,8.342479,-0.116493,0.026045,-0.097572,-5.11875,14.700001,-36.693752
1782300241651,0.265603,0.820738,8.342479,-0.060904,0.047425,-0.104902,-5.11875,14.700001,-36.693752
1782300241652,0.150748,0.954736,8.335301,-0.060904,0.047425,-0.104902,-5.11875,14.700001,-36.693752
1782300241658,0.150748,0.954736,8.335301,-0.060904,0.047425,-0.104902,-6.16875,13.687501,-35.943752
1782300241660,0.189033,1.050449,8.151053,0.009345,0.090797,-0.107346,-6.16875,13.687501,-35.943752
1782300241670,0.20339,1.148555,7.895021,0.071653,0.140277,-0.108567,-6.9375,13.687501,-35.193752
1782300241677,0.131605,1.268196,7.655739,0.109527,0.181205,-0.1104,-6.9375,13.687501,-35.193752
1782300241679,0.131605,1.268196,7.655739,0.109527,0.181205,-0.1104,-7.2,13.25625,-35.962502
1782300241686,0.01675,1.351945,7.552848,0.121133,0.21297,-0.106735,-7.2,13.25625,-35.962502
1782300241688,0.01675,1.351945,7.552848,0.121133,0.21297,-0.106735,-4.55625,14.1,-34.725002
1782300241694,-0.026321,1.45005,7.497813,0.108305,0.23435,-0.093296,-4.55625,14.1,-34.725002
1782300241700,-0.026321,1.45005,7.497813,0.108305,0.23435,-0.093296,-4.96875,13.51875,-35.043751
1782300241703,-0.040678,1.531407,7.536098,0.070432,0.244124,-0.079857,-4.96875,13.51875,-35.043751
1782300241708,-0.040678,1.531407,7.536098,0.070432,0.244124,-0.079857,-5.2875,13.51875,-34.743752
1782300241711,-0.100499,1.57687,7.670096,0.006291,0.2484,-0.062752,-5.2875,13.51875,-34.743752
1782300241719,-0.100499,1.57687,7.670096,0.006291,0.2484,-0.062752,-6.65625,13.2375,-34.125
1782300241720,-0.162712,1.586441,7.890236,-0.063959,0.249622,-0.04015,-6.65625,13.2375,-34.125
1782300241730,-0.131605,1.591227,8.19891,-0.123212,0.245346,-0.017548,-5.55,13.087501,-35.8125
1782300241737,-0.131605,1.591227,8.19891,-0.16414,0.240459,0.006886,-5.55,13.087501,-35.8125
1782300241738,-0.066999,1.552942,8.562619,-0.16414,0.240459,0.006886,-5.55,13.087501,-35.8125
1782300241750,-0.066999,1.552942,8.562619,-0.16414,0.240459,0.006886,-5.26875,13.81875,-35.34375
1782300241751,-0.009571,1.490728,8.900007,-0.18491,0.235572,0.031321,-5.26875,13.81875,-35.34375
1782300241755,-0.009571,1.490728,8.900007,-0.186742,0.2203,0.052701,-5.26875,13.81875,-35.34375
1782300241756,0.002393,1.380659,9.225431,-0.186742,0.2203,0.052701,-5.26875,13.81875,-35.34375
1782300241759,0.002393,1.380659,9.225431,-0.186742,0.2203,0.052701,-4.3875,13.950001,-35.193752
1782300241764,-0.004786,1.301695,9.474285,-0.169027,0.178761,0.071027,-4.3875,13.950001,-35.193752
1782300241769,-0.004786,1.301695,9.474285,-0.169027,0.178761,0.071027,-2.8875,13.931251,-34.875
1782300241772,-0.021535,1.277767,9.680068,-0.13543,0.120729,0.08752,-2.8875,13.931251,-34.875
1782300241779,-0.021535,1.277767,9.680068,-0.13543,0.120729,0.08752,-4.4625,12.76875,-36.112503
1782300241781,0.009571,1.258625,9.814065,-0.090837,0.05781,0.104014,-4.4625,12.76875,-36.112503
1782300241790,0.038285,1.306481,9.857136,-0.041967,0.001,0.117453,-3.99375,12.618751,-36.262501
1782300241797,0.038285,1.306481,9.857136,0.014843,-0.053978,0.127837,-3.99375,12.618751,-36.262501
1782300241798,0.038285,1.39023,9.866707,0.014843,-0.053978,0.127837,-3.99375,12.618751,-36.262501
1782300241799,0.038285,1.39023,9.866707,0.014843,-0.053978,0.127837,-3.99375,11.887501,-35.962502
1782300241807,0.040678,1.526621,9.8356,0.074708,-0.105291,0.137,-3.99375,11.887501,-35.962502
1782300241809,0.040678,1.526621,9.8356,0.074708,-0.105291,0.137,-1.93125,13.031251,-35.043751
1782300241815,0.11007,1.651048,9.692031,0.13274,-0.148051,0.143109,-1.93125,13.031251,-35.043751
1782300241820,0.11007,1.651048,9.692031,0.13274,-0.148051,0.143109,-4.5,13.06875,-35.043751
1782300241824,0.210568,1.725225,9.579568,0.177944,-0.184703,0.147385,-4.5,13.06875,-35.043751
1782300241829,0.210568,1.725225,9.579568,0.177944,-0.184703,0.147385,-2.7,13.031251,-35.043751
1782300241833,0.308674,1.799403,9.567605,0.202378,-0.196921,0.154105,-2.7,13.031251,-35.043751
1782300241855,0.430708,1.969293,9.847564,0.19627,-0.17554,0.170598,-3.28125,11.868751,-34.443752
1782300241859,0.528814,1.988436,10.058133,0.180998,-0.158436,0.185869,-3.28125,11.868751,-34.443752
1782300241860,0.528814,1.988436,10.058133,0.180998,-0.158436,0.185869,-2.7,13.481251,-35.34375
1782300241869,0.643669,1.923829,10.302201,0.16084,-0.129725,0.197476,-2.98125,12.750001,-35.34375
1782300241875,0.708275,1.801795,10.622839,0.141903,-0.102237,0.205417,-2.98125,12.750001,-35.34375
1782300241879,0.708275,1.801795,10.622839,0.141903,-0.102237,0.205417,-4.275,11.887501,-36.262501
1782300241883,0.768096,1.701297,11.017655,0.127242,-0.083911,0.210304,-4.275,11.887501,-36.262501
1782300241888,0.768096,1.701297,11.017655,0.127242,-0.083911,0.210304,-4.05,13.950001,-35.943752
1782300241892,0.777667,1.567299,11.434006,0.120523,-0.081467,0.210915,-4.05,13.950001,-35.943752
1782300241898,0.777667,1.567299,11.434006,0.120523,-0.081467,0.210915,-3.35625,10.556251,-35.381252
1782300241900,0.777667,1.567299,11.434006,0.124799,-0.095517,0.207861,-3.35625,10.556251,-35.381252
1782300241901,0.792024,1.433301,11.797715,0.124799,-0.095517,0.207861,-3.35625,10.556251,-35.381252
1782300241910,0.792024,1.433301,11.797715,0.14679,-0.124839,0.20053,-6.05625,10.44375,-35.981251
1782300241911,0.751346,1.292124,12.099211,0.14679,-0.124839,0.20053,-6.05625,10.44375,-35.981251
1782300241919,0.751346,1.292124,12.099211,0.187107,-0.160269,0.192589,-2.9625,11.71875,-35.0625
1782300241920,0.667598,1.253839,12.247566,0.187107,-0.160269,0.192589,-2.9625,11.71875,-35.0625
1782300241927,0.574277,1.320838,12.206888,0.247582,-0.182871,0.188313,-2.9625,11.71875,-35.0625
1782300241929,0.574277,1.320838,12.206888,0.247582,-0.182871,0.188313,-3.28125,12.6,-34.893753
1782300241935,0.574277,1.320838,12.206888,0.319054,-0.185925,0.188924,-3.28125,12.6,-34.893753
1782300241936,0.464208,1.4668,11.993927,0.319054,-0.185925,0.188924,-3.28125,12.6,-34.893753
1782300241947,0.349352,1.643869,11.692431,0.391136,-0.177373,0.20053,-2.94375,11.26875,-34.762501
1782300241949,0.349352,1.643869,11.692431,0.391136,-0.177373,0.20053,-2.625,11.26875,-35.362503
1782300241952,0.256032,1.761117,11.333507,0.446114,-0.153549,0.224965,-2.625,11.26875,-35.362503
1782300241959,0.256032,1.761117,11.333507,0.446114,-0.153549,0.224965,-2.45625,11.137501,-35.981251
1782300241960,0.184247,1.758725,11.048762,0.463218,-0.136445,0.252454,-2.45625,11.137501,-35.981251
1782300241970,0.0,1.804188,10.969799,0.438172,-0.135834,0.283608,-4.59375,10.40625,-34.462502
1782300241979,-0.244068,2.005185,10.883657,0.374031,-0.150495,0.317205,-3.91875,9.375,-35.681252
1782300241986,-0.251246,1.942972,10.924335,0.278126,-0.177373,0.356301,-3.91875,9.375,-35.681252
1782300241988,-0.251246,1.942972,10.924335,0.278126,-0.177373,0.356301,-3.6,8.793751,-35.850002
1782300241995,-0.232104,1.995614,10.732909,0.153509,-0.196921,0.399672,-3.6,8.793751,-35.850002
1782300241999,-0.232104,1.995614,10.732909,0.153509,-0.196921,0.399672,-2.7375,8.90625,-34.181252
1782300242003,-0.224925,1.828117,10.548662,0.022784,-0.223188,0.430215,-2.7375,8.90625,-34.181252
1782300242009,-0.224925,1.828117,10.548662,0.022784,-0.223188,0.430215,-3.31875,9.825001,-36.131252
1782300242012,-0.031107,1.497907,10.531912,-0.105497,-0.236627,0.45465,-3.31875,9.825001,-36.131252
1782300242019,-0.031107,1.497907,10.531912,-0.105497,-0.236627,0.45465,-3.2625,11.118751,-34.143753
1782300242020,0.150748,1.253839,10.634803,-0.232557,-0.229296,0.458315,-3.2625,11.118751,-34.143753
1782300242030,0.387637,0.859023,11.125332,-0.354119,-0.214636,0.446098,-4.44375,9.806251,-34.012501
1782300242039,0.409173,0.739382,11.350257,-0.46774,-0.198753,0.422885,-3.975,11.137501,-35.662502
1782300242050,0.294317,0.425922,11.587146,-0.547153,-0.207916,0.388677,-4.275,10.40625,-34.912502
1782300242055,0.385244,0.150748,11.740287,-0.571587,-0.214636,0.359355,-4.275,10.40625,-34.912502
1782300242059,0.385244,0.150748,11.740287,-0.571587,-0.214636,0.359355,-3.43125,11.26875,-33.993752
1782300242063,0.39003,0.043071,11.845572,-0.526383,-0.186536,0.321481,-3.43125,11.26875,-33.993752
1782300242069,0.39003,0.043071,11.845572,-0.526383,-0.186536,0.321481,-3.43125,12.31875,-34.743752
1782300242072,0.315853,0.047856,11.740287,-0.395658,-0.118119,0.283608,-3.43125,12.31875,-34.743752
1782300242078,0.315853,0.047856,11.740287,-0.395658,-0.118119,0.283608,-3.43125,12.31875,-34.743752
1782300242080,0.16989,0.160319,11.264116,-0.203847,0.00161,0.254897,-3.43125,12.31875,-34.743752
1782300242090,0.031107,0.277567,10.586947,-0.002872,0.12867,0.23596,-3.46875,12.750001,-33.993752
1782300242099,-0.047856,0.454636,9.952849,0.165727,0.22702,0.224965,-2.98125,12.01875,-34.743752
1782300242106,-0.064606,0.62692,9.481463,0.271406,0.307654,0.220078,-2.98125,12.01875,-34.743752
1782300242108,-0.064606,0.62692,9.481463,0.271406,0.307654,0.220078,-2.4375,10.387501,-35.681252
1782300242115,-0.105284,0.717847,9.03879,0.305615,0.387066,0.220689,-2.4375,10.387501,-35.681252
1782300242119,-0.105284,0.717847,9.03879,0.305615,0.387066,0.220689,-1.35,11.83125,-33.693752
1782300242123,-0.102891,0.849452,8.543477,0.275071,0.44632,0.229241,-1.35,11.83125,-33.693752
1782300242129,-0.102891,0.849452,8.543477,0.275071,0.44632,0.229241,-2.86875,11.85,-33.393753
1782300242132,0.014357,0.993021,8.158232,0.182831,0.443266,0.217634,-2.86875,11.85,-33.393753
1782300242139,0.014357,0.993021,8.158232,0.182831,0.443266,0.217634,-2.625,10.2375,-34.3125
1782300242140,-0.081356,1.036092,8.009877,0.043554,0.368129,0.195643,-2.625,10.2375,-34.3125
1782300242151,-0.050249,0.978664,8.32573,-0.095724,0.270391,0.180983,-2.30625,10.5375,-35.0625
1782300242159,-0.028714,0.842274,8.60569,-0.184299,0.20625,0.160824,-1.89375,10.51875,-34.012501
1782300242166,-0.038285,0.748953,8.773187,-0.214842,0.168987,0.134557,-1.89375,10.51875,-34.012501
1782300242168,-0.038285,0.748953,8.773187,-0.214842,0.168987,0.134557,-1.725,10.368751,-34.462502
1782300242175,-0.083749,0.727418,8.799509,-0.202014,0.145164,0.104624,-1.725,10.368751,-34.462502
1782300242181,-0.083749,0.727418,8.799509,-0.202014,0.145164,0.104624,-2.7375,8.90625,-34.181252
1782300242183,-0.117248,0.634098,8.684653,-0.162308,0.112788,0.082022,-2.7375,8.90625,-34.181252
1782300242189,-0.117248,0.634098,8.684653,-0.162308,0.112788,0.082022,-0.88125,11.681251,-33.993752
1782300242192,-0.160319,0.681954,8.486048,-0.116493,0.076747,0.070416,-0.88125,11.681251,-33.993752
1782300242198,-0.160319,0.681954,8.486048,-0.116493,0.076747,0.070416,-1.6125,10.21875,-33.243752
1782300242200,-0.246461,0.81356,8.32573,-0.082285,0.052312,0.061864,-1.6125,10.21875,-33.243752
1782300242210,-0.145962,0.729811,8.141482,-0.068846,0.043149,0.05942,-0.6375,10.06875,-34.912502
1782300242219,0.019143,0.650848,7.99552,-0.084117,0.025434,0.056366,-1.14375,11.700001,-34.762501
1782300242227,0.241675,0.739382,8.081662,-0.120158,-0.016105,0.060642,-1.14375,11.700001,-34.762501
1782300242228,0.241675,0.739382,8.081662,-0.120158,-0.016105,0.060642,-1.89375,10.51875,-34.3125
1782300242235,0.363709,0.842274,8.29223,-0.172082,-0.04848,0.069805,-1.89375,10.51875,-34.3125
1782300242239,0.363709,0.842274,8.29223,-0.172082,-0.04848,0.069805,-1.66875,11.231251,-32.475002
1782300242244,0.378066,0.851845,8.450157,-0.22767,-0.070472,0.078968,-1.66875,11.231251,-32.475002
1782300242250,0.378066,0.851845,8.450157,-0.22767,-0.070472,0.078968,-1.29375,11.1,-34.462502
1782300242252,0.363709,0.849452,8.505191,-0.267987,-0.104069,0.085688,-1.29375,11.1,-34.462502
1782300242258,0.363709,0.849452,8.505191,-0.267987,-0.104069,0.085688,-2.0625,10.668751,-33.693752
1782300242261,0.33021,0.904487,8.596118,-0.273485,-0.153549,0.090575,-2.0625,10.668751,-33.693752
1782300242269,0.323031,1.019342,8.699009,-0.24172,-0.190201,0.09424,-1.29375,11.1,-34.462502
1782300242280,0.311067,1.134198,8.74208,-0.172693,-0.191423,0.099127,-0.28125,11.38125,-33.393753
1782300242286,0.342174,1.225125,8.725331,-0.082285,-0.147441,0.107068,-0.28125,11.38125,-33.393753
1782300242289,0.342174,1.225125,8.725331,-0.082285,-0.147441,0.107068,0.0375,12.562501,-34.893753
1782300242295,0.413958,1.275374,8.593726,0.010567,-0.073526,0.114398,0.0375,12.562501,-34.893753
1782300242299,0.413958,1.275374,8.593726,0.010567,-0.073526,0.114398,-0.825,10.21875,-34.3125
1782300242304,0.478565,1.299303,8.447763,0.07654,-0.004498,0.119285,-0.825,10.21875,-34.3125
1782300242309,0.478565,1.299303,8.447763,0.07654,-0.004498,0.119285,0.0375,10.63125,-33.09375
1782300242312,0.488136,1.363909,8.435799,0.10464,0.021769,0.116842,0.0375,10.63125,-33.09375
1782300242318,0.488136,1.363909,8.435799,0.10464,0.021769,0.116842,-2.04375,10.06875,-33.412502
1782300242321,0.447458,1.454836,8.450157,0.095477,0.009552,0.111955,-2.04375,10.06875,-33.412502
1782300242328,0.447458,1.454836,8.450157,0.095477,0.009552,0.111955,-0.225,10.650001,-34.462502
1782300242330,0.378066,1.533799,8.466906,0.053938,-0.043594,0.108901,-0.225,10.650001,-34.462502
1782300242339,0.320638,1.574477,8.526726,-0.00104,-0.126671,0.102792,0.31875,11.212501,-32.793751
1782300242347,0.289532,1.600798,8.710974,-0.038913,-0.207916,0.091185,0.31875,11.212501,-32.793751
1782300242348,0.289532,1.600798,8.710974,-0.038913,-0.207916,0.091185,-0.75,12.1125,-33.693752
1782300242359,0.287139,1.603191,8.935899,-0.040135,-0.243346,0.078357,-0.15,11.212501,-32.475002
1782300242364,0.308674,1.591227,9.084254,-0.004705,-0.248233,0.063697,-0.15,11.212501,-32.475002
1782300242369,0.308674,1.591227,9.084254,-0.004705,-0.248233,0.063697,-0.84375,10.950001,-33.993752
1782300242372,0.351745,1.584049,9.177575,0.063712,-0.190201,0.045371,-0.84375,10.950001,-33.993752
1782300242378,0.351745,1.584049,9.177575,0.063712,-0.190201,0.045371,-1.35,11.83125,-33.693752
1782300242381,0.375673,1.562513,9.235002,0.138849,-0.129725,0.025823,-1.35,11.83125,-33.693752
1782300242389,0.37328,1.564906,9.179967,0.207876,-0.078413,0.004443,-1.21875,11.681251,-32.475002
1782300242399,0.399601,1.588834,9.108182,0.251248,-0.056422,-0.014494,-1.3125,10.650001,-33.393753
1782300242407,0.42353,1.636691,9.062719,0.262854,-0.058865,-0.035874,-1.3125,10.650001,-33.393753
1782300242408,0.42353,1.636691,9.062719,0.262854,-0.058865,-0.035874,-0.75,11.08125,-32.325001
1782300242415,0.433101,1.706083,9.101004,0.254302,-0.071082,-0.06092,-0.75,11.08125,-32.325001
1782300242418,0.433101,1.706083,9.101004,0.254302,-0.071082,-0.06092,-0.35625,10.5,-34.762501
1782300242424,0.457029,1.794617,9.184753,0.23903,-0.089408,-0.085965,-0.35625,10.5,-34.762501
1782300242429,0.457029,1.794617,9.184753,0.23903,-0.089408,-0.085965,-1.1625,9.76875,-32.793751
1782300242432,0.476172,1.864009,9.352251,0.231089,-0.09063,-0.114065,-1.1625,9.76875,-32.793751
1782300242438,0.476172,1.864009,9.352251,0.231089,-0.09063,-0.114065,-1.59375,11.25,-34.762501
1782300242441,0.567099,1.916651,9.474285,0.233533,-0.075359,-0.137889,-1.59375,11.25,-34.762501
1782300242448,0.567099,1.916651,9.474285,0.233533,-0.075359,-0.137889,-0.2625,10.63125,-33.09375
1782300242450,0.722632,1.940579,9.536498,0.235976,-0.043594,-0.158047,-0.2625,10.63125,-33.09375
1782300242464,0.882952,1.976472,9.620246,0.230478,-0.027711,-0.17393,-1.1625,10.200001,-32.793751
1782300242467,0.997807,2.019542,9.823637,0.207265,-0.025878,-0.183704,-1.1625,10.200001,-32.793751
1782300242468,0.997807,2.019542,9.823637,0.207265,-0.025878,-0.183704,-1.275,9.31875,-33.112503
1782300242475,0.997807,2.019542,9.823637,0.163894,-0.036874,-0.183704,-1.275,9.31875,-33.112503
1782300242476,1.057628,2.050649,10.086847,0.163894,-0.036874,-0.183704,-1.275,9.31875,-33.112503
1782300242478,1.057628,2.050649,10.086847,0.163894,-0.036874,-0.183704,-1.0125,10.35,-33.09375
1782300242484,1.057628,2.050649,10.086847,0.113192,-0.04787,-0.174541,-1.0125,10.35,-33.09375
1782300242485,1.028914,2.062613,10.354843,0.113192,-0.04787,-0.174541,-1.0125,10.35,-33.09375
1782300242490,1.028914,2.062613,10.354843,0.113192,-0.04787,-0.174541,-0.43125,10.481251,-32.493752
1782300242493,0.92363,2.029114,10.601304,0.074097,-0.044815,-0.161102,-0.43125,10.481251,-32.493752
1782300242499,0.92363,2.029114,10.601304,0.074097,-0.044815,-0.161102,-1.59375,9.1875,-32.8125
1782300242501,0.806381,1.981257,10.833408,0.063101,-0.014272,-0.140332,-1.59375,9.1875,-32.8125
1782300242509,0.806381,1.981257,10.833408,0.063101,-0.014272,-0.140332,-0.675,9.31875,-33.112503
1782300242510,0.660419,1.940579,11.02244,0.086925,0.054145,-0.115287,-0.675,9.31875,-33.112503
1782300242520,0.660419,1.940579,11.02244,0.146179,0.148218,-0.089631,-0.675,9.31875,-33.112503
1782300242521,0.540778,1.883151,11.137296,0.146179,0.148218,-0.089631,-0.825,9.168751,-33.262501
1782300242528,0.413958,1.734796,11.244973,0.223759,0.260006,-0.067029,-0.825,9.168751,-33.262501
1782300242529,0.413958,1.734796,11.244973,0.223759,0.260006,-0.067029,-0.3375,9.46875,-34.3125
1782300242536,0.267996,1.533799,11.398114,0.289121,0.36874,-0.050535,-0.3375,9.46875,-34.3125
1782300242539,0.267996,1.533799,11.398114,0.289121,0.36874,-0.050535,-0.3375,9.46875,-34.3125
1782300242545,0.114855,1.387837,11.630217,0.32333,0.428605,-0.042594,-0.3375,9.46875,-34.3125
1782300242550,0.114855,1.387837,11.630217,0.32333,0.428605,-0.042594,-0.43125,9.450001,-31.743752
1782300242553,-0.114855,1.359123,11.847965,0.325162,0.435324,-0.046259,-0.43125,9.450001,-31.743752
1782300242569,-0.409173,1.445265,12.008283,0.312334,0.379125,-0.054811,-0.43125,9.450001,-31.743752
1782300242570,-0.409173,1.445265,12.008283,0.301339,0.280165,-0.067639,-0.43125,9.450001,-31.743752
1782300242571,-0.57667,1.514657,12.025034,0.301339,0.280165,-0.067639,-0.43125,9.450001,-31.743752
1782300242580,-0.815953,1.469193,11.838393,0.301339,0.280165,-0.067639,-0.43125,9.450001,-31.743752
1782300242581,-0.815953,1.469193,11.838393,0.289732,0.187313,-0.0823,-0.09375,9.150001,-32.493752
1782300242588,-0.509671,1.440479,11.584754,0.27385,0.117064,-0.106735,-0.09375,9.150001,-32.493752
1782300242589,-0.509671,1.440479,11.584754,0.27385,0.117064,-0.106735,0.75,7.9875,-34.03125
1782300242596,-0.509671,1.440479,11.584754,0.245139,0.076747,-0.134224,0.75,7.9875,-34.03125
1782300242597,-0.459422,1.59362,11.374185,0.245139,0.076747,-0.134224,0.75,7.9875,-34.03125
1782300242600,-0.459422,1.59362,11.374185,0.245139,0.076747,-0.134224,2.3625,9.28125,-33.712502
1782300242604,-0.459422,1.59362,11.374185,0.202378,0.054756,-0.145219,2.3625,9.28125,-33.712502
1782300242605,-0.449851,1.823331,11.142082,0.202378,0.054756,-0.145219,2.3625,9.28125,-33.712502
1782300242610,-0.449851,1.823331,11.142082,0.202378,0.054756,-0.145219,0.09375,8.56875,-33.112503
1782300242613,-0.263211,1.864009,10.787944,0.202378,0.054756,-0.145219,0.09375,8.56875,-33.112503
1782300242614,-0.263211,1.864009,10.787944,0.128464,0.05048,-0.150717,0.09375,8.56875,-33.112503
1782300242619,-0.263211,1.864009,10.787944,0.128464,0.05048,-0.150717,2.23125,7.95,-32.8125
1782300242622,0.086142,1.672583,10.52234,-0.002261,0.048036,-0.15255,2.23125,7.95,-32.8125
1782300242629,0.086142,1.672583,10.52234,-0.002261,0.048036,-0.15255,0.825,8.55,-32.362503
1782300242631,0.358923,1.385444,10.563018,-0.182466,0.015049,-0.151328,0.825,8.55,-32.362503
1782300242640,0.358923,1.385444,10.563018,-0.385884,-0.032598,-0.147663,0.825,8.55,-32.362503
1782300242641,0.528814,1.107877,10.986548,-0.385884,-0.032598,-0.147663,-0.13125,7.85625,-34.481251
1782300242648,0.540778,0.760918,11.496219,-0.563646,-0.086965,-0.144608,-0.13125,7.85625,-34.481251
1782300242649,0.540778,0.760918,11.496219,-0.563646,-0.086965,-0.144608,1.0125,8.418751,-33.262501
1782300242657,0.428315,0.356531,11.943677,-0.668715,-0.151106,-0.140943,1.0125,8.418751,-33.262501
1782300242659,0.428315,0.356531,11.943677,-0.668715,-0.151106,-0.140943,-0.05625,8.418751,-32.8125
1782300242680,0.428315,0.356531,11.943677,-0.667493,-0.217079,-0.135445,-0.05625,8.418751,-32.8125
1782300242681,0.234497,-0.124427,12.711773,-0.532492,-0.217079,-0.125061,-0.975,8.587501,-32.662502
1782300242682,0.258425,-0.09332,12.185353,-0.266155,-0.122395,-0.117119,-0.975,8.587501,-32.662502
1782300242689,0.258425,-0.09332,12.185353,-0.266155,-0.122395,-0.117119,-1.21875,10.931251,-32.175003
1782300242690,0.284746,0.045464,10.883657,0.019119,-0.049091,-0.109789,-1.21875,10.931251,-32.175003
1782300242700,0.33021,0.282353,9.88585,0.229257,-0.053978,-0.106124,1.29375,9.6,-33.712502
1782300242707,0.284746,0.550349,9.486249,0.35876,-0.067417,-0.104902,1.29375,9.6,-33.712502
1782300242708,0.284746,0.550349,9.486249,0.35876,-0.067417,-0.104902,0.54375,8.26875,-32.362503
1782300242716,0.205783,0.739382,9.127326,0.430231,-0.024046,-0.098793,0.54375,8.26875,-32.362503
1782300242718,0.205783,0.739382,9.127326,0.430231,-0.024046,-0.098793,2.60625,10.3125,-32.643753
1782300242724,0.495314,0.66999,8.797116,0.433896,0.037651,-0.10368,2.60625,10.3125,-32.643753
1782300242729,0.495314,0.66999,8.797116,0.433896,0.037651,-0.10368,0.825,8.55,-32.362503
1782300242733,0.492921,0.760918,8.435799,0.355706,0.088353,-0.108567,0.825,8.55,-32.362503
1782300242738,0.492921,0.760918,8.435799,0.355706,0.088353,-0.108567,-1.0875,9.76875,-34.78125
1782300242741,0.370888,0.921237,7.966806,0.213985,0.082855,-0.104902,-1.0875,9.76875,-34.78125
1782300242748,0.370888,0.921237,7.966806,0.213985,0.082855,-0.104902,0.43125,11.0625,-31.875002
1782300242750,0.658026,1.028914,7.751452,0.018508,0.037651,-0.11773,0.43125,11.0625,-31.875002
1782300242759,0.859023,0.957129,7.945271,-0.186742,-0.016105,-0.150717,0.35625,9.450001,-32.493752
1782300242767,0.894916,0.792024,8.435799,-0.337015,-0.042983,-0.185536,0.35625,9.450001,-32.493752
1782300242768,0.894916,0.792024,8.435799,-0.337015,-0.042983,-0.185536,1.6875,10.1625,-32.493752
1782300242776,0.892523,0.679562,8.876079,-0.415817,-0.028933,-0.208749,1.6875,10.1625,-32.493752
1782300242778,0.892523,0.679562,8.876079,-0.415817,-0.028933,-0.208749,2.5125,7.95,-32.212502
1782300242784,0.947558,0.535992,9.254144,-0.431088,0.008941,-0.234405,2.5125,7.95,-32.212502
1782300242789,0.947558,0.535992,9.254144,-0.431088,0.008941,-0.234405,2.19375,9.731251,-33.5625
1782300242793,0.952343,0.433101,9.620246,-0.40421,0.051701,-0.254564,2.19375,9.731251,-33.5625
1782300242798,0.952343,0.433101,9.620246,-0.40421,0.051701,-0.254564,1.55625,9.58125,-32.643753
1782300242801,0.832702,0.387637,9.790137,-0.346789,0.098738,-0.262505,1.55625,9.58125,-32.643753
1782300242808,0.832702,0.387637,9.790137,-0.346789,0.098738,-0.262505,0.675,9.75,-33.262501
1782300242810,0.758525,0.375673,9.627425,-0.278372,0.14272,-0.25884,0.675,9.75,-33.262501
1782300242819,0.68674,0.375673,9.251751,-0.221562,0.165933,-0.246623,1.425,10.481251,-33.543751
1782300242827,0.62692,0.394816,8.983756,-0.186742,0.158603,-0.227686,1.425,10.481251,-33.543751
1782300242828,0.62692,0.394816,8.983756,-0.186742,0.158603,-0.227686,1.8375,11.0625,-33.09375
1782300242836,0.598206,0.433101,8.864114,-0.167806,0.14944,-0.205695,1.8375,11.0625,-33.09375
1782300242838,0.598206,0.433101,8.864114,-0.167806,0.14944,-0.205695,0.39375,9.168751,-33.5625
1782300242844,0.591027,0.5001,8.799509,-0.154367,0.162879,-0.184925,0.39375,9.168751,-33.5625
1782300242849,0.591027,0.5001,8.799509,-0.154367,0.162879,-0.184925,1.25625,10.33125,-33.09375
1782300242853,0.591027,0.571885,8.74926,-0.145204,0.184259,-0.164156,1.25625,10.33125,-33.09375
1782300242859,0.591027,0.571885,8.74926,-0.145204,0.184259,-0.164156,2.2875,11.043751,-33.09375
1782300242864,0.55992,0.636491,8.739687,-0.133597,0.212359,-0.147052,2.2875,11.043751,-33.09375
1782300242873,0.485743,0.705883,8.74208,-0.12138,0.223965,-0.136667,2.1,12.225,-33.225002
1782300242879,0.351745,0.81356,8.761223,-0.101832,0.230685,-0.132391,1.5,11.043751,-32.325001
1782300242887,0.236889,0.976272,8.71576,-0.081674,0.201974,-0.127504,1.5,11.043751,-32.325001
1782300242888,0.236889,0.976272,8.71576,-0.081674,0.201974,-0.127504,0.4125,11.34375,-31.575001
1782300242896,0.153141,1.131805,8.58894,-0.058461,0.159824,-0.122617,0.4125,11.34375,-31.575001
1782300242898,0.153141,1.131805,8.58894,-0.058461,0.159824,-0.122617,2.41875,11.19375,-32.793751
1782300242904,0.064606,1.270589,8.421443,-0.028528,0.113399,-0.120785,2.41875,11.19375,-32.793751
1782300242909,0.064606,1.270589,8.421443,-0.028528,0.113399,-0.120785,3.01875,11.325001,-32.625
1782300242915,0.011964,1.418944,8.29223,0.004458,0.062697,-0.118341,3.01875,11.325001,-32.625
1782300242919,0.011964,1.418944,8.29223,0.004458,0.062697,-0.118341,2.025,11.625,-30.206251
1782300242922,-0.031107,1.569692,8.18216,0.039888,0.054145,-0.11773,2.025,11.625,-30.206251
1782300242929,-0.031107,1.569692,8.18216,0.039888,0.054145,-0.11773,4.03125,11.00625,-30.806252
1782300242930,-0.181855,1.694118,8.052948,0.067377,0.054145,-0.111011,4.03125,11.00625,-30.806252
1782300242939,-0.074178,1.808974,7.811273,0.082649,0.070638,-0.092074,2.925,10.44375,-33.243752
1782300242947,0.18664,1.849652,7.765809,0.077151,0.069416,-0.084133,2.925,10.44375,-33.243752
1782300242948,0.18664,1.849652,7.765809,0.077151,0.069416,-0.084133,2.5875,9.993751,-31.893751
1782300242956,0.007178,1.916651,7.780166,0.048441,0.087742,-0.068861,2.5875,9.993751,-31.893751
1782300242958,0.007178,1.916651,7.780166,0.048441,0.087742,-0.068861,3.3375,10.59375,-32.643753
1782300242964,0.002393,1.931008,7.830415,0.008734,0.079801,-0.04015,3.3375,10.59375,-32.643753
1782300242969,0.002393,1.931008,7.830415,0.008734,0.079801,-0.04015,3.43125,11.606251,-31.406252
1782300242975,0.18664,1.878366,8.036198,-0.037691,0.095684,-0.015716,3.43125,11.606251,-31.406252
1782300242978,0.18664,1.878366,8.036198,-0.037691,0.095684,-0.015716,2.8875,10.44375,-32.193752
1782300242982,0.208176,1.842473,8.361621,-0.090837,0.112788,0.003832,2.8875,10.44375,-32.193752
1782300242988,0.208176,1.842473,8.361621,-0.090837,0.112788,0.003832,2.325,12.20625,-30.956251
1782300242990,0.215354,1.832902,8.684653,-0.133597,0.110955,0.020936,2.325,12.20625,-30.956251
1782300242999,0.155533,1.710868,8.976577,-0.161086,0.09324,0.039873,2.4,10.89375,-31.725
1782300243009,0.157926,1.605584,9.273287,-0.16353,0.075525,0.052701,2.56875,11.043751,-32.643753
1782300243016,0.174676,1.543371,9.529319,-0.139706,0.051091,0.063086,2.56875,11.043751,-32.643753
1782300243018,0.174676,1.543371,9.529319,-0.139706,0.051091,0.063086,2.56875,11.043751,-32.643753
1782300243025,0.184247,1.512264,9.773387,-0.084117,0.010163,0.077746,2.56875,11.043751,-32.643753
1782300243029,0.184247,1.512264,9.773387,-0.084117,0.010163,0.077746,4.18125,12.937501,-32.456253
1782300243033,0.251246,1.488336,9.912171,-0.009592,-0.011829,0.088742,4.18125,12.937501,-32.456253
1782300243038,0.251246,1.488336,9.912171,-0.009592,-0.011829,0.088742,2.11875,11.94375,-33.225002
1782300243041,0.119641,1.402194,9.847564,0.074708,-0.020992,0.099738,2.11875,11.94375,-33.225002
1782300243048,0.119641,1.402194,9.847564,0.074708,-0.020992,0.099738,3.31875,11.325001,-32.325001
1782300243050,0.449851,1.493121,9.69921,0.159007,-0.020992,0.110733,3.31875,11.325001,-32.325001
1782300243059,0.5001,1.641476,9.593925,0.21765,-0.032598,0.097294,2.49375,12.056251,-31.25625
1782300243068,0.387637,1.792224,9.443178,0.251248,-0.052757,0.100959,2.49375,12.056251,-31.25625
1782300243069,0.387637,1.792224,9.443178,0.251248,-0.052757,0.100959,3.65625,14.55,-31.837502
1782300243076,0.492921,1.794617,9.297216,0.267741,-0.0833,0.104014,3.65625,14.55,-31.837502
1782300243078,0.492921,1.794617,9.297216,0.267741,-0.0833,0.104014,2.8125,11.625,-31.406252
1782300243087,0.617348,1.799403,9.318751,0.251248,-0.094906,0.100959,2.8125,11.625,-31.406252
1782300243089,0.617348,1.799403,9.318751,0.251248,-0.094906,0.100959,4.51875,10.575001,-31.575001
1782300243093,0.607777,1.859223,9.416856,0.217039,-0.103458,0.100348,4.51875,10.575001,-31.575001
1782300243099,0.607777,1.859223,9.416856,0.217039,-0.103458,0.100348,4.2,10.425,-30.975
1782300243102,0.658026,1.90708,9.617854,0.180387,-0.091241,0.103403,4.2,10.425,-30.975
1782300243108,0.658026,1.90708,9.617854,0.180387,-0.091241,0.103403,3.76875,11.025001,-32.325001
1782300243110,0.612563,1.87358,9.787744,0.147401,-0.059476,0.10829,3.76875,11.025001,-32.325001
1782300243119,0.571885,1.78026,9.981563,0.129075,-0.038707,0.118063,3.84375,10.59375,-34.162502
1782300243129,0.552742,1.648655,10.25913,0.126631,-0.019159,0.132113,3.84375,10.59375,-34.162502
1782300243130,0.552742,1.648655,10.25913,0.126631,-0.019159,0.132113,2.8875,10.44375,-32.493752
1782300243136,0.540778,1.488336,10.596518,0.138849,-0.00572,0.152272,2.8875,10.44375,-32.493752
1782300243139,0.540778,1.488336,10.596518,0.138849,-0.00572,0.152272,3.24375,11.306251,-30.056252
1782300243145,0.540778,1.488336,10.596518,0.158396,-0.009996,0.176707,3.24375,11.306251,-30.056252
1782300243146,0.488136,1.304088,10.984155,0.158396,-0.009996,0.176707,3.24375,11.306251,-30.056252
1782300243150,0.488136,1.304088,10.984155,0.158396,-0.009996,0.176707,1.8375,10.6125,-32.643753
1782300243153,0.488136,1.304088,10.984155,0.179166,-0.028933,0.201141,1.8375,10.6125,-32.643753
1782300243154,0.440279,1.177269,11.355043,0.179166,-0.028933,0.201141,1.8375,10.6125,-32.643753
1782300243159,0.440279,1.177269,11.355043,0.179166,-0.028933,0.201141,2.08125,11.925,-32.175003
1782300243162,0.440279,1.177269,11.355043,0.195659,-0.067417,0.224354,2.08125,11.925,-32.175003
1782300243163,0.351745,1.122234,11.642182,0.195659,-0.067417,0.224354,2.08125,11.925,-32.175003
1782300243169,0.351745,1.122234,11.642182,0.195659,-0.067417,0.224354,3.73125,11.00625,-30.806252
1782300243171,0.294317,1.129412,11.771394,0.209709,-0.115065,0.245734,3.73125,11.00625,-30.806252
1782300243180,0.267996,1.15334,11.773787,0.225591,-0.168821,0.258562,2.11875,10.44375,-31.725
1782300243201,0.303888,1.311267,11.520148,0.264076,-0.22502,0.26406,4.25625,9.39375,-31.44375
1782300243205,0.363709,1.385444,11.35265,0.271406,-0.185314,0.262228,4.25625,9.39375,-31.44375
1782300243209,0.363709,1.385444,11.35265,0.271406,-0.185314,0.262228,2.25,11.043751,-31.875002
1782300243213,0.363709,1.385444,11.35265,0.254302,-0.102847,0.258562,2.25,11.043751,-31.875002
1782300243214,0.375673,1.495514,11.268901,0.254302,-0.102847,0.258562,2.25,11.043751,-31.875002
1782300243219,0.375673,1.495514,11.268901,0.254302,-0.102847,0.258562,4.55625,9.975,-31.893751
1782300243222,0.375673,1.495514,11.268901,0.210931,-0.009996,0.253675,4.55625,9.975,-31.893751
1782300243223,0.267996,1.619941,11.247366,0.210931,-0.009996,0.253675,4.55625,9.975,-31.893751
1782300243228,0.267996,1.619941,11.247366,0.210931,-0.009996,0.253675,4.575,10.275001,-33.09375
1782300243231,0.136391,1.701297,11.266509,0.144346,0.06514,0.251232,4.575,10.275001,-33.09375
1782300243240,0.045464,1.641476,11.335901,0.050884,0.123173,0.251232,3.01875,9.543751,-30.825001
1782300243249,0.045464,1.641476,11.335901,-0.062126,0.153105,0.246956,3.01875,9.543751,-30.825001
1782300243250,0.038285,1.457229,11.414863,-0.062126,0.153105,0.246956,2.3625,8.83125,-33.112503
1782300243257,0.004786,1.189233,11.606289,-0.183688,0.140277,0.23596,2.3625,8.83125,-33.112503
1782300243258,0.004786,1.189233,11.606289,-0.183688,0.140277,0.23596,4.5375,11.025001,-32.625
1782300243266,-0.088534,0.914058,11.958034,-0.301585,0.096905,0.2213,4.5375,11.025001,-32.625
1782300243270,-0.088534,0.914058,11.958034,-0.301585,0.096905,0.2213,2.60625,10.3125,-33.09375
1782300243274,-0.162712,0.650848,12.283458,-0.399934,0.047425,0.204806,2.60625,10.3125,-33.09375
1782300243281,-0.162712,0.650848,12.283458,-0.399934,0.047425,0.204806,3.375,9.5625,-32.34375
1782300243283,-0.200997,0.385244,12.474884,-0.453079,-0.010607,0.184648,3.375,9.5625,-32.34375
1782300243301,-0.198604,0.265603,12.465313,-0.440251,-0.079024,0.161435,4.2,11.606251,-32.175003
1782300243302,-0.234497,0.27996,12.340886,-0.344956,-0.136445,0.134557,2.56875,9.993751,-31.575001
1782300243309,-0.217747,0.404387,11.986748,-0.165362,-0.152938,0.111344,2.56875,9.993751,-31.575001
1782300243310,-0.217747,0.404387,11.986748,-0.165362,-0.152938,0.111344,3.4875,10.875,-32.475002
1782300243317,-0.215354,0.571885,11.249759,0.06188,-0.129115,0.091185,3.4875,10.875,-32.475002
1782300243318,-0.215354,0.571885,11.249759,0.06188,-0.129115,0.091185,2.5875,10.293751,-32.34375
1782300243326,-0.196211,0.825524,10.426628,0.276904,-0.106513,0.075303,2.5875,10.293751,-32.34375
1782300243329,-0.196211,0.825524,10.426628,0.276904,-0.106513,0.075303,4.65,11.606251,-32.175003
1782300243334,-0.198604,1.12702,9.782959,0.433896,-0.096128,0.061253,4.65,11.606251,-32.175003
1782300243340,-0.198604,1.12702,9.782959,0.433896,-0.096128,0.061253,2.85,11.625,-32.175003
1782300243343,-0.205783,1.421337,9.316358,0.518806,-0.081467,0.050258,2.85,11.625,-32.175003
1782300243349,-0.205783,1.421337,9.316358,0.518806,-0.081467,0.050258,2.30625,10.3125,-32.643753
1782300243351,-0.177069,1.694118,8.789938,0.524304,-0.061309,0.04476,2.30625,10.3125,-32.643753
1782300243360,-0.177069,1.694118,8.789938,0.440616,-0.082689,0.045981,2.30625,10.3125,-32.643753
1782300243361,-0.16989,1.885544,7.954842,0.440616,-0.082689,0.045981,1.6875,10.462501,-32.493752
1782300243369,-0.16989,1.885544,7.954842,0.252469,-0.220744,0.05209,1.6875,10.462501,-32.493752
1782300243370,-0.145962,2.041078,7.416457,0.252469,-0.220744,0.05209,3.01875,9.993751,-31.575001
1782300243377,-0.145962,2.041078,7.416457,0.016676,-0.324591,0.064307,3.01875,9.993751,-31.575001
1782300243378,-0.086142,2.105684,7.868701,0.016676,-0.324591,0.064307,3.01875,9.993751,-31.575001
1782300243379,-0.086142,2.105684,7.868701,0.016676,-0.324591,0.064307,2.1375,10.1625,-32.193752
1782300243385,-0.095713,1.914258,8.220445,-0.160475,-0.325813,0.077136,2.1375,10.1625,-32.193752
1782300243392,-0.095713,1.914258,8.220445,-0.160475,-0.325813,0.077136,3.01875,12.075001,-33.075001
1782300243395,-0.124427,1.648655,8.35205,-0.274096,-0.273279,0.100348,3.01875,12.075001,-33.075001
1782300243399,-0.124427,1.648655,8.35205,-0.274096,-0.273279,0.100348,3.3375,10.293751,-31.875002
1782300243402,-0.129212,1.404587,8.330515,-0.359617,-0.173708,0.127226,3.3375,10.293751,-31.875002
1782300243408,-0.129212,1.404587,8.330515,-0.359617,-0.173708,0.127226,4.06875,11.025001,-31.875002
1782300243411,-0.131605,1.155733,8.421443,-0.422536,-0.072915,0.154715,4.06875,11.025001,-31.875002
1782300243420,-0.11007,0.928415,8.653546,-0.468962,-0.006331,0.190146,3.01875,11.325001,-32.625
1782300243429,-0.11007,0.928415,8.653546,-0.489731,0.063308,0.225576,3.01875,11.325001,-32.625
1782300243430,-0.12682,0.72024,8.904792,-0.489731,0.063308,0.225576,2.56875,11.043751,-32.325001
1782300243437,-0.131605,0.524028,9.115361,-0.475681,0.117675,0.254286,2.56875,11.043751,-32.325001
1782300243438,-0.131605,0.524028,9.115361,-0.475681,0.117675,0.254286,2.3625,12.95625,-32.456253
1782300243445,-0.069392,0.368495,9.373786,-0.430477,0.151883,0.276888,2.3625,12.95625,-32.456253
1782300243448,-0.069392,0.368495,9.373786,-0.430477,0.151883,0.276888,2.26875,11.793751,-33.075001
1782300243454,0.0,0.287139,9.641782,-0.354119,0.154327,0.28544,2.26875,11.793751,-33.075001
1782300243459,0.0,0.287139,9.641782,-0.354119,0.154327,0.28544,3.20625,11.925,-33.993752
1782300243462,-0.052642,0.31346,9.821244,-0.251494,0.143942,0.279943,3.20625,11.925,-33.993752
1782300243468,-0.052642,0.31346,9.821244,-0.251494,0.143942,0.279943,3.73125,12.056251,-31.875002
1782300243471,0.023928,0.361316,9.706388,-0.145814,0.130503,0.273834,3.73125,12.056251,-31.875002
1782300243478,0.023928,0.361316,9.706388,-0.145814,0.130503,0.273834,2.8125,12.20625,-31.706251
1782300243480,0.050249,0.449851,9.316358,-0.060293,0.091408,0.265893,2.8125,12.20625,-31.706251
1782300243489,0.150748,0.605384,8.947863,-0.004094,0.027878,0.267725,3.15,10.875,-31.425001
1782300243504,0.095713,0.787239,8.663118,0.017286,-0.007553,0.268336,3.15,10.875,-31.425001
1782300243505,0.007178,0.935594,8.285052,0.023395,-0.036263,0.268336,3.15,10.875,-31.425001
1782300243508,0.007178,0.935594,8.285052,0.023395,-0.036263,0.268336,3.6375,13.81875,-30.7875
1782300243514,-0.01675,1.071985,8.017056,0.022784,-0.057643,0.278721,3.6375,13.81875,-30.7875
1782300243519,-0.01675,1.071985,8.017056,0.022784,-0.057643,0.278721,4.2,11.15625,-31.725
1782300243522,0.019143,1.20359,7.830415,0.018508,-0.061919,0.290327,4.2,11.15625,-31.725
1782300243528,0.019143,1.20359,7.830415,0.018508,-0.061919,0.290327,4.06875,11.025001,-31.875002
1782300243531,0.026321,1.320838,7.710774,0.025228,-0.04115,0.295214,4.06875,11.025001,-31.875002
1782300243538,0.026321,1.320838,7.710774,0.025228,-0.04115,0.295214,3.99375,12.4875,-31.25625
1782300243539,-0.004786,1.351945,7.69881,0.045386,-0.028322,0.297047,3.99375,12.4875,-31.25625
1782300243549,0.20339,1.371087,7.725131,0.077762,0.005276,0.294603,3.225,12.7875,-30.7875
1782300243556,0.20339,1.371087,7.725131,0.105251,-0.002666,0.268336,3.225,12.7875,-30.7875
1782300243557,0.224925,1.347159,7.82563,0.105251,-0.002666,0.268336,3.225,12.7875,-30.7875
1782300243558,0.224925,1.347159,7.82563,0.105251,-0.002666,0.268336,3.8625,12.937501,-32.456253
1782300243565,0.301496,1.462015,7.99552,0.122355,-0.04115,0.23535,3.8625,12.937501,-32.456253
1782300243568,0.301496,1.462015,7.99552,0.122355,-0.04115,0.23535,3.45,11.606251,-32.175003
1782300243574,0.471386,1.569692,8.002698,0.115636,-0.123006,0.187091,3.45,11.606251,-32.175003
1782300243579,0.471386,1.569692,8.002698,0.115636,-0.123006,0.187091,2.55,11.325001,-32.325001
1782300243582,0.416351,1.617548,8.038591,0.082038,-0.243346,0.141887,2.55,11.325001,-32.325001
1782300243588,0.416351,1.617548,8.038591,0.082038,-0.243346,0.141887,3.91875,10.875,-31.725
1782300243591,0.538385,1.682154,8.146267,0.031336,-0.355135,0.111955,3.91875,10.875,-31.725
1782300243599,0.485743,1.663012,8.359229,-0.019365,-0.45104,0.093629,3.01875,10.59375,-31.875002
1782300243609,0.602991,1.634298,8.632011,-0.047465,-0.491968,0.077746,3.1875,11.19375,-33.243752
1782300243617,0.607777,1.552942,8.928721,-0.056017,-0.469366,0.058199,3.1875,11.19375,-33.243752
1782300243618,0.607777,1.552942,8.928721,-0.056017,-0.469366,0.058199,2.025,12.656251,-31.406252
1782300243625,0.634098,1.490728,9.168003,-0.045633,-0.392397,0.039873,2.025,12.656251,-31.406252
1782300243628,0.634098,1.490728,9.168003,-0.045633,-0.392397,0.039873,2.19375,11.775001,-30.806252
1782300243635,0.727418,1.428515,9.282858,-0.023642,-0.299546,0.017882,2.19375,11.775001,-30.806252
1782300243639,0.727418,1.428515,9.282858,-0.023642,-0.299546,0.017882,3.7125,12.0375,-31.25625
1782300243642,0.765703,1.371087,9.390536,0.002626,-0.220133,-0.007164,3.7125,12.0375,-31.25625
1782300243648,0.765703,1.371087,9.390536,0.002626,-0.220133,-0.007164,3.15,11.175,-31.725
1782300243651,0.772882,1.402194,9.548461,0.037445,-0.176151,-0.031598,3.15,11.175,-31.725
1782300243658,0.772882,1.402194,9.548461,0.037445,-0.176151,-0.031598,3.46875,10.14375,-31.425001
1782300243659,0.729811,1.459622,9.703995,0.091201,-0.128504,-0.057255,3.46875,10.14375,-31.425001
1782300243669,0.722632,1.555335,9.780566,0.163283,-0.093074,-0.079246,3.43125,12.656251,-32.775002
1782300243677,0.681954,1.605584,9.770995,0.250637,-0.030155,-0.101848,3.43125,12.656251,-32.775002
1782300243678,0.681954,1.605584,9.770995,0.250637,-0.030155,-0.101848,4.7625,12.468751,-31.556252
1782300243685,0.602991,1.634298,9.668103,0.331882,0.033375,-0.120174,4.7625,12.468751,-31.556252
1782300243688,0.602991,1.634298,9.668103,0.331882,0.033375,-0.120174,3.3375,13.668751,-30.637501
1782300243694,0.586242,1.698904,9.569997,0.382584,0.088964,-0.134224,3.3375,13.668751,-30.637501
1782300243699,0.586242,1.698904,9.569997,0.382584,0.088964,-0.134224,3.15,10.875,-31.725
1782300243702,0.588634,1.787439,9.589139,0.402131,0.143331,-0.149495,3.15,10.875,-31.725
1782300243709,0.588634,1.787439,9.589139,0.402131,0.143331,-0.149495,4.2,11.15625,-31.725
1782300243711,0.581456,1.837688,9.730317,0.382584,0.179983,-0.162323,4.2,11.15625,-31.725
1782300243718,0.581456,1.837688,9.730317,0.382584,0.179983,-0.162323,3.0375,11.043751,-33.09375
1782300243720,0.605384,1.871187,9.945671,0.328217,0.176318,-0.175762,3.0375,11.043751,-33.09375
1782300243729,0.579063,1.878366,10.146668,0.247582,0.153105,-0.187369,4.2375,10.125,-31.725
1782300243737,0.545564,1.864009,10.412271,0.156564,0.103014,-0.196532,4.2375,10.125,-31.725
1782300243738,0.545564,1.864009,10.412271,0.156564,0.103014,-0.196532,3.75,10.275001,-30.825001
1782300243745,0.564706,1.801795,10.641982,0.077762,0.068806,-0.200808,3.75,10.275001,-30.825001
1782300243748,0.564706,1.801795,10.641982,0.077762,0.068806,-0.200808,2.325,10.6125,-33.693752
1782300243754,0.574277,1.694118,10.890835,0.025228,0.049258,-0.205695,2.325,10.6125,-33.693752
1782300243759,0.574277,1.694118,10.890835,0.025228,0.049258,-0.205695,2.5875,10.293751,-32.34375
1782300243763,0.59342,1.557728,11.14926,0.003237,0.052923,-0.210582,2.5875,10.293751,-32.34375
1782300243768,0.59342,1.557728,11.14926,0.003237,0.052923,-0.210582,2.98125,10.575001,-30.825001
1782300243771,0.586242,1.435694,11.3694,0.006291,0.066973,-0.217912,2.98125,10.575001,-30.825001
1782300243778,0.586242,1.435694,11.3694,0.006291,0.066973,-0.217912,4.65,11.606251,-32.175003
1782300243780,0.595813,1.430908,11.524933,0.026449,0.066973,-0.229519,4.65,11.606251,-32.175003
1782300243789,0.550349,1.540978,11.570397,0.059436,0.066973,-0.236849,3.525,9.69375,-32.493752
1782300243797,0.512064,1.648655,11.501005,0.094255,0.054145,-0.235016,3.525,9.69375,-32.493752
1782300243798,0.512064,1.648655,11.501005,0.094255,0.054145,-0.235016,2.41875,10.89375,-32.175003
1782300243809,0.524028,1.744368,11.364614,0.131518,0.046814,-0.231351,2.08125,10.44375,-30.675001
1782300243814,0.526421,1.818545,11.264116,0.157785,0.046204,-0.23074,2.08125,10.44375,-30.675001
1782300243819,0.526421,1.818545,11.264116,0.157785,0.046204,-0.23074,1.74375,12.525001,-31.856251
1782300243823,0.526421,1.954936,11.266509,0.157174,0.044371,-0.23074,1.74375,12.525001,-31.856251
1782300243828,0.526421,1.954936,11.266509,0.157174,0.044371,-0.23074,3.05625,10.59375,-33.09375
1782300243831,0.564706,2.139184,11.204295,0.122966,0.059643,-0.230129,3.05625,10.59375,-33.09375
1782300243838,0.564706,2.139184,11.204295,0.122966,0.059643,-0.230129,3.2625,12.056251,-31.556252
1782300243840,0.629312,2.230111,11.132511,0.04783,0.06453,-0.227686,3.2625,12.056251,-31.556252
1782300243849,0.739382,2.191826,11.053547,-0.059072,0.057199,-0.225853,4.03125,11.75625,-31.556252
1782300243857,0.897308,2.017149,11.041584,-0.195905,0.018715,-0.228297,4.03125,11.75625,-31.556252
1782300243859,0.897308,2.017149,11.041584,-0.195905,0.018715,-0.228297,2.98125,10.575001,-30.50625
1782300243867,1.014557,1.689333,11.177974,-0.349232,-0.028933,-0.235016,2.98125,10.575001,-30.50625
1782300243868,1.014557,1.689333,11.177974,-0.349232,-0.028933,-0.235016,5.5125,12.01875,-30.806252
1782300243875,1.057628,1.294517,11.515362,-0.489731,-0.060698,-0.246012,5.5125,12.01875,-30.806252
1782300243879,1.057628,1.294517,11.515362,-0.489731,-0.060698,-0.246012,2.9625,13.5375,-33.056252
1782300243883,1.033699,0.866202,11.967605,-0.596022,-0.093684,-0.255786,2.9625,13.5375,-33.056252
1782300243888,1.033699,0.866202,11.967605,-0.596022,-0.093684,-0.255786,3.24375,11.306251,-30.056252
1782300243891,0.942772,0.514457,12.288244,-0.639393,-0.105291,-0.261284,3.24375,11.306251,-30.056252
1782300243898,0.942772,0.514457,12.288244,-0.639393,-0.105291,-0.261284,2.75625,12.637501,-30.637501
1782300243900,0.885344,0.244068,12.482063,-0.597854,-0.09796,-0.261894,2.75625,12.637501,-30.637501
1782300243909,0.868595,0.117248,12.474884,-0.456134,-0.04787,-0.257007,2.45625,12.7875,-30.7875
1782300243917,0.820738,0.162712,11.929321,-0.238055,0.038873,-0.246012,2.45625,12.7875,-30.7875
1782300243918,0.820738,0.162712,11.929321,-0.238055,0.038873,-0.246012,4.1625,12.637501,-31.706251
1782300243926,0.756132,0.272782,11.120546,-0.005926,0.096295,-0.231962,4.1625,12.637501,-31.706251
1782300243928,0.756132,0.272782,11.120546,-0.005926,0.096295,-0.231962,2.90625,12.7875,-30.7875
1782300243934,0.715454,0.437887,10.536698,0.186496,0.112177,-0.219745,2.90625,12.7875,-30.7875
1782300243939,0.715454,0.437887,10.536698,0.186496,0.112177,-0.219745,2.90625,12.4875,-30.487501
1782300243943,0.650848,0.591027,10.254344,0.321497,0.109734,-0.20936,2.90625,12.4875,-30.487501
1782300243948,0.650848,0.591027,10.254344,0.321497,0.109734,-0.20936,2.5125,11.775001,-31.556252
1782300243951,0.650848,0.591027,10.254344,0.40152,0.129892,-0.198975,2.5125,11.775001,-31.556252
1782300243952,0.595813,0.79681,9.940885,0.40152,0.129892,-0.198975,2.5125,11.775001,-31.556252
1782300243958,0.595813,0.79681,9.940885,0.40152,0.129892,-0.198975,2.5125,11.775001,-31.556252
1782300243960,0.528814,0.973879,9.474285,0.418014,0.146385,-0.191645,2.5125,11.775001,-31.556252
1782300243969,0.452243,1.083949,8.962221,0.375864,0.140888,-0.186758,3.09375,13.687501,-32.456253
1782300243977,0.480957,1.150948,8.493228,0.285456,0.103625,-0.185536,3.09375,13.687501,-32.456253
