ts,ax,ay,az,gx,gy,gz,mx,my,mz
1782299596432,0.339781,1.162912,9.560426,-0.158795,-0.032598,0.054381,3.225,-40.425003,-50.043751
1782299596433,0.363709,1.172483,9.912171,-0.158795,-0.032598,0.054381,3.225,-40.425003,-50.043751
1782299596437,0.334995,1.150948,9.912171,-0.159406,-0.009996,0.055603,3.225,-40.425003,-50.043751
1782299596439,0.334995,1.150948,9.912171,-0.159406,-0.009996,0.055603,2.23125,-37.762501,-49.856251
1782299596443,0.275175,1.079163,9.715959,-0.141691,-0.003276,0.054992,2.23125,-37.762501,-49.856251
1782299596449,0.275175,1.079163,9.715959,-0.141691,-0.003276,0.054992,4.425,-39.712502,-50.793751
1782299596452,0.248854,1.067199,9.723138,-0.1197,-0.016105,0.054381,4.425,-39.712502,-50.793751
1782299596458,0.248854,1.067199,9.723138,-0.1197,-0.016105,0.054381,3.9375,-37.931252,-51.525002
1782299596460,0.224925,1.088734,9.914564,-0.089157,-0.024046,0.05377,3.9375,-37.931252,-51.525002
1782299596469,0.224925,1.088734,9.914564,-0.048229,-0.022824,0.056213,2.83125,-38.231251,-49.256252
1782299596470,0.227318,1.138984,10.017455,-0.048229,-0.022824,0.056213,2.83125,-38.231251,-49.256252
1782299596479,0.267996,1.194018,9.907385,-0.01402,-0.022213,0.06782,2.7375,-38.793751,-50.943752
1782299596487,0.275175,1.213161,9.778173,0.006749,-0.032598,0.083702,2.7375,-38.793751,-50.943752
1782299596489,0.275175,1.213161,9.778173,0.006749,-0.032598,0.083702,2.775,-39.825001,-50.643753
1782299596495,0.275175,1.237089,9.689639,0.025686,-0.049091,0.097141,2.775,-39.825001,-50.643753
1782299596500,0.275175,1.237089,9.689639,0.025686,-0.049091,0.097141,2.55,-37.462502,-51.075001
1782299596505,0.275175,1.237089,9.689639,0.043401,-0.061309,0.105083,2.55,-37.462502,-51.075001
1782299596507,0.287139,1.342373,9.627425,0.043401,-0.061309,0.105083,2.55,-37.462502,-51.075001
1782299596509,0.287139,1.342373,9.627425,0.043401,-0.061309,0.105083,3.61875,-38.962502,-50.025002
1782299596513,0.323031,1.35673,9.510177,0.04279,-0.074137,0.11058,3.61875,-38.962502,-50.025002
1782299596519,0.323031,1.35673,9.510177,0.04279,-0.074137,0.11058,2.26875,-38.362503,-50.625004
1782299596524,0.349352,1.359123,9.443178,0.020799,-0.099182,0.116689,2.26875,-38.362503,-50.625004
1782299596532,0.346959,1.337588,9.455142,-0.017686,-0.1114,0.121576,1.2375,-38.775002,-50.943752
1782299596541,0.327817,1.347159,9.517355,-0.051283,-0.105902,0.122798,2.83125,-38.962502,-48.656254
1782299596548,0.344566,1.411765,9.60589,-0.073274,-0.083911,0.124019,3.76875,-38.381252,-50.625004
1782299596555,0.346959,1.411765,9.550854,-0.092211,-0.061309,0.128906,3.76875,-38.381252,-50.625004
1782299596559,0.346959,1.411765,9.550854,-0.092211,-0.061309,0.128906,2.26875,-39.09375,-49.875004
1782299596564,0.378066,1.418944,9.426428,-0.106261,-0.056422,0.137458,2.26875,-39.09375,-49.875004
1782299596569,0.378066,1.418944,9.426428,-0.106261,-0.056422,0.137458,1.5,-38.34375,-50.175003
1782299596574,0.409173,1.430908,9.364214,-0.114813,-0.053978,0.144178,1.5,-38.34375,-50.175003
1782299596579,0.409173,1.430908,9.364214,-0.114813,-0.053978,0.144178,2.5875,-38.943752,-50.793751
1782299596581,0.442672,1.416551,9.3355,-0.114202,-0.049702,0.151508,2.5875,-38.943752,-50.793751
1782299596588,0.442672,1.416551,9.3355,-0.114202,-0.049702,0.151508,0.825,-37.762501,-48.806252
1782299596589,0.416351,1.368695,9.290037,-0.103207,-0.044204,0.153952,0.825,-37.762501,-48.806252
1782299596599,0.33021,1.311267,9.34268,-0.075718,-0.064974,0.148454,2.71875,-37.762501,-50.925003
1782299596606,0.33021,1.311267,9.34268,-0.032957,-0.085132,0.139902,2.71875,-37.762501,-50.925003
1782299596607,0.236889,1.28016,9.469499,-0.032957,-0.085132,0.139902,2.71875,-37.762501,-50.925003
1782299596608,0.236889,1.28016,9.469499,-0.032957,-0.085132,0.139902,0.2625,-37.893753,-49.706253
1782299596616,0.181855,1.275374,9.53889,0.016523,-0.092463,0.131961,0.2625,-37.893753,-49.706253
1782299596619,0.181855,1.275374,9.53889,0.016523,-0.092463,0.131961,0.58125,-37.893753,-50.475002
1782299596624,0.191426,1.323231,9.60589,0.061727,-0.077191,0.12463,0.58125,-37.893753,-50.475002
1782299596631,0.191426,1.323231,9.60589,0.061727,-0.077191,0.12463,-0.375,-36.5625,-49.856251
1782299596633,0.153141,1.452443,9.603497,0.095324,-0.037485,0.119743,-0.375,-36.5625,-49.856251
1782299596640,0.153141,1.452443,9.603497,0.095324,-0.037485,0.119743,2.25,-38.362503,-50.175003
1782299596641,0.153141,1.452443,9.603497,0.109374,0.02238,0.114856,2.25,-38.362503,-50.175003
1782299596642,0.145962,1.57687,9.424035,0.109374,0.02238,0.114856,2.25,-38.362503,-50.175003
1782299596649,0.145962,1.57687,9.424035,0.109374,0.02238,0.114856,1.03125,-38.193752,-50.025002
1782299596650,0.177069,1.718047,9.115361,0.092881,0.073082,0.114246,1.03125,-38.193752,-50.025002
1782299596660,0.229711,1.825724,8.854543,0.037292,0.110344,0.114246,1.29375,-37.912502,-48.956253
1782299596667,0.258425,1.911865,8.785151,-0.039677,0.10729,0.119743,1.29375,-37.912502,-48.956253
1782299596669,0.258425,1.911865,8.785151,-0.039677,0.10729,0.119743,1.29375,-37.162502,-50.006252
1782299596678,0.265603,1.926222,8.971792,-0.117867,0.070638,0.128906,1.29375,-37.162502,-50.006252
1782299596679,0.265603,1.926222,8.971792,-0.117867,0.070638,0.128906,1.48125,-38.362503,-49.575001
1782299596684,0.22014,1.864009,9.316358,-0.177121,0.026045,0.13868,1.48125,-38.362503,-49.575001
1782299596689,0.22014,1.864009,9.316358,-0.177121,0.026045,0.13868,0.525,-38.943752,-47.456253
1782299596692,0.112463,1.775474,9.668103,-0.209497,-0.003887,0.148454,0.525,-38.943752,-47.456253
1782299596698,0.112463,1.775474,9.668103,-0.209497,-0.003887,0.148454,0.525,-38.943752,-47.456253
1782299596701,0.004786,1.708475,9.912171,-0.199112,-0.014883,0.150897,0.525,-38.943752,-47.456253
1782299596708,0.004786,1.708475,9.912171,-0.199112,-0.014883,0.150897,1.7625,-38.212502,-48.956253
1782299596710,-0.09332,1.658226,10.029419,-0.157574,-0.016715,0.142956,1.7625,-38.212502,-48.956253
1782299596719,-0.09332,1.658226,10.029419,-0.101985,-0.002055,0.135626,1.7625,-38.212502,-48.956253
1782299596720,-0.131605,1.67019,10.053347,-0.101985,-0.002055,0.135626,1.7625,-38.212502,-48.956253
1782299596721,-0.131605,1.67019,10.053347,-0.101985,-0.002055,0.135626,-0.525,-38.643753,-47.90625
1782299596728,-0.026321,1.701297,10.041383,-0.054337,0.032765,0.133793,-0.525,-38.643753,-47.90625
1782299596729,-0.026321,1.701297,10.041383,-0.054337,0.032765,0.133793,-0.525,-38.643753,-47.90625
1782299596736,0.117248,1.730011,10.041383,-0.029292,0.089575,0.135015,-0.525,-38.643753,-47.90625
1782299596739,0.117248,1.730011,10.041383,-0.029292,0.089575,0.135015,0.84375,-37.3125,-49.856251
1782299596744,0.244068,1.765903,10.000705,-0.029903,0.159214,0.142345,0.84375,-37.3125,-49.856251
1782299596749,0.244068,1.765903,10.000705,-0.029903,0.159214,0.142345,0.3375,-37.3125,-48.037502
1782299596752,0.244068,1.765903,10.000705,-0.055559,0.219689,0.149676,0.3375,-37.3125,-48.037502
1782299596753,0.334995,1.823331,9.878671,-0.055559,0.219689,0.149676,0.3375,-37.3125,-48.037502
1782299596758,0.334995,1.823331,9.878671,-0.055559,0.219689,0.149676,1.96875,-39.09375,-49.875004
1782299596761,0.418744,1.828117,9.826029,-0.100152,0.2484,0.157617,1.96875,-39.09375,-49.875004
1782299596769,0.418744,1.828117,9.826029,-0.100152,0.2484,0.157617,1.85625,-37.050003,-48.337502
1782299596770,0.42353,1.804188,9.890635,-0.148411,0.250232,0.163726,1.85625,-37.050003,-48.337502
1782299596784,0.334995,1.713261,10.094025,-0.185063,0.228241,0.163726,1.125,-37.03125,-49.106251
1782299596787,0.334995,1.713261,10.094025,-0.203388,0.176929,0.152119,1.125,-37.03125,-49.106251
1782299596788,0.239282,1.631905,10.19931,-0.203388,0.176929,0.152119,1.78125,-38.662502,-49.256252
1782299596795,0.239282,1.631905,10.19931,-0.203388,0.105457,0.131961,1.78125,-38.662502,-49.256252
1782299596797,0.141177,1.581656,10.242381,-0.203388,0.105457,0.131961,1.78125,-38.662502,-49.256252
1782299596798,0.141177,1.581656,10.242381,-0.203388,0.105457,0.131961,1.40625,-37.03125,-48.787502
1782299596805,0.12682,1.598405,10.249559,-0.18323,0.027267,0.10997,1.40625,-37.03125,-48.787502
1782299596810,0.12682,1.598405,10.249559,-0.18323,0.027267,0.10997,1.9125,-38.362503,-49.106251
1782299596814,0.131605,1.660619,10.170596,-0.145356,-0.030155,0.091644,1.9125,-38.362503,-49.106251
1782299596818,0.131605,1.660619,10.170596,-0.145356,-0.030155,0.091644,1.7625,-38.212502,-48.956253
1782299596821,0.184247,1.732404,9.940885,-0.087935,-0.050924,0.077594,1.7625,-38.212502,-48.956253
1782299596828,0.184247,1.732404,9.940885,-0.087935,-0.050924,0.077594,0.4875,-36.881252,-48.637501
1782299596829,0.215354,1.811367,9.589139,-0.029292,-0.047259,0.06782,0.4875,-36.881252,-48.637501
1782299596839,0.215354,1.811367,9.589139,0.018966,-0.038707,0.063544,0.4875,-36.881252,-48.637501
1782299596840,0.246461,1.909472,9.237395,0.018966,-0.038707,0.063544,1.8375,-36.600002,-48.337502
1782299596847,0.267996,1.995614,9.01247,0.048899,-0.023435,0.065987,1.8375,-36.600002,-48.337502
1782299596848,0.267996,1.995614,9.01247,0.048899,-0.023435,0.065987,0.09375,-37.743752,-49.556252
1782299596856,0.215354,2.122434,8.904792,0.062949,0.008941,0.072707,0.09375,-37.743752,-49.556252
1782299596860,0.215354,2.122434,8.904792,0.062949,0.008941,0.072707,0.95625,-37.481251,-48.187504
1782299596864,0.215354,2.122434,8.904792,0.073333,0.046814,0.077594,0.95625,-37.481251,-48.187504
1782299596865,0.22014,2.220539,8.856936,0.073333,0.046814,0.077594,0.95625,-37.481251,-48.187504
1782299596871,0.22014,2.220539,8.856936,0.073333,0.046814,0.077594,2.00625,-39.262501,-46.6875
1782299596883,0.038285,2.361716,8.62244,0.066614,0.109734,0.083091,-0.7875,-35.831253,-47.568752
1782299596899,0.023928,2.383251,8.639189,0.043401,0.103625,0.084924,1.3875,-37.331253,-48.037502
1782299596902,0.028714,2.318645,8.844972,0.01469,0.078579,0.083091,0.975,-36.131252,-50.006252
1782299596907,0.019143,2.289931,9.203895,0.001862,0.040095,0.085535,0.975,-36.131252,-50.006252
1782299596909,0.019143,2.289931,9.203895,0.001862,0.040095,0.085535,1.8,-37.350002,-46.518753
1782299596916,0.0,2.242075,9.474285,0.003695,0.030321,0.09592,1.8,-37.350002,-46.518753
1782299596919,0.0,2.242075,9.474285,0.003695,0.030321,0.09592,1.85625,-37.050003,-48.337502
1782299596925,-0.002393,2.227718,9.644175,0.024464,0.040095,0.111191,1.85625,-37.050003,-48.337502
1782299596930,-0.002393,2.227718,9.644175,0.024464,0.040095,0.111191,1.78125,-37.050003,-46.518753
1782299596933,-0.059821,2.208575,9.687246,0.057451,0.040706,0.13135,1.78125,-37.050003,-46.518753
1782299596939,-0.059821,2.208575,9.687246,0.057451,0.040706,0.13135,1.06875,-37.03125,-47.587502
1782299596941,-0.066999,2.194218,9.620246,0.083718,0.037651,0.15273,1.06875,-37.03125,-47.587502
1782299596949,-0.066999,2.194218,9.620246,0.083718,0.037651,0.15273,0.95625,-39.262501,-46.387501
1782299596950,-0.069392,2.225325,9.569997,0.094714,0.031543,0.170445,0.95625,-39.262501,-46.387501
1782299596960,-0.069392,2.225325,9.569997,0.091659,0.030321,0.18816,0.95625,-39.262501,-46.387501
1782299596961,-0.107677,2.28036,9.656139,0.091659,0.030321,0.18816,0.31875,-37.03125,-48.037502
1782299596967,-0.102891,2.301895,9.732709,0.076388,0.041317,0.205264,0.31875,-37.03125,-48.037502
1782299596969,-0.102891,2.301895,9.732709,0.076388,0.041317,0.205264,-0.6,-37.162502,-47.4375
1782299596976,-0.090927,2.294717,9.768602,0.05684,0.046204,0.220536,-0.6,-37.162502,-47.4375
1782299596980,-0.090927,2.294717,9.768602,0.05684,0.046204,0.220536,0.88125,-37.5,-46.068752
1782299596993,-0.090927,2.294717,9.768602,0.05684,0.046204,0.220536,-0.4875,-37.331253,-46.21875
1782299596994,-0.105284,2.136791,9.890635,0.02874,0.014439,0.221147,-0.4875,-37.331253,-46.21875
1782299596998,-0.105284,2.136791,9.890635,0.02874,0.014439,0.221147,0.8625,-36.168751,-46.668751
1782299597001,-0.086142,2.098505,9.969598,0.018966,0.005276,0.211373,0.8625,-36.168751,-46.668751
1782299597008,-0.086142,2.098505,9.969598,0.018966,0.005276,0.211373,0.13125,-37.931252,-45.618752
1782299597010,-0.086142,2.098505,9.969598,0.015301,0.000389,0.195491,0.13125,-37.931252,-45.618752
1782299597011,-0.133998,2.074577,9.940885,0.015301,0.000389,0.195491,0.13125,-37.931252,-45.618752
1782299597021,-0.229711,2.069792,9.971991,0.014079,-0.011218,0.176554,1.2375,-35.587502,-44.681252
1782299597027,-0.229711,2.069792,9.971991,0.023853,-0.028322,0.152119,1.2375,-35.587502,-44.681252
1782299597028,-0.189033,2.033899,9.96242,0.023853,-0.028322,0.152119,1.2375,-35.587502,-44.681252
1782299597030,-0.189033,2.033899,9.96242,0.023853,-0.028322,0.152119,0.225,-37.350002,-44.700001
1782299597036,-0.189033,2.033899,9.96242,0.050731,-0.058254,0.122187,0.225,-37.350002,-44.700001
1782299597037,-0.064606,1.995614,9.945671,0.050731,-0.058254,0.122187,0.225,-37.350002,-44.700001
1782299597039,-0.064606,1.995614,9.945671,0.050731,-0.058254,0.122187,0.69375,-38.100002,-44.400002
1782299597045,0.045464,2.041078,9.888242,0.087383,-0.071082,0.0892,0.69375,-38.100002,-44.400002
1782299597050,0.045464,2.041078,9.888242,0.087383,-0.071082,0.0892,-0.31875,-39.262501,-44.568752
1782299597054,0.107677,2.129612,9.747066,0.121592,-0.061919,0.056213,-0.31875,-39.262501,-44.568752
1782299597059,0.107677,2.129612,9.747066,0.121592,-0.061919,0.056213,0.73125,-37.78125,-45.768753
1782299597061,0.107677,2.129612,9.747066,0.146026,-0.047259,0.028114,0.73125,-37.78125,-45.768753
1782299597062,0.131605,2.242075,9.560426,0.146026,-0.047259,0.028114,0.73125,-37.78125,-45.768753
1782299597068,0.131605,2.242075,9.560426,0.146026,-0.047259,0.028114,0.84375,-39.731251,-43.050003
1782299597071,0.09332,2.347359,9.426428,0.154578,-0.035652,0.005512,0.84375,-39.731251,-43.050003
1782299597080,0.09332,2.347359,9.426428,0.150302,-0.020992,-0.013425,0.84375,-39.731251,-43.050003
1782299597082,0.059821,2.452643,9.352251,0.150302,-0.020992,-0.013425,0.99375,-37.800003,-44.700001
1782299597098,0.045464,2.481357,9.354643,0.150302,-0.020992,-0.013425,0.99375,-37.800003,-44.700001
1782299597099,0.045464,2.481357,9.354643,0.121592,0.082855,-0.03786,-0.43125,-37.5,-43.03125
1782299597105,-0.011964,2.426322,9.505391,0.103266,0.132336,-0.045801,-0.43125,-37.5,-43.03125
1782299597109,-0.011964,2.426322,9.505391,0.103266,0.132336,-0.045801,0.1875,-38.400002,-42.581253
1782299597113,-0.023928,2.380858,9.818851,0.088605,0.164711,-0.050688,0.1875,-38.400002,-42.581253
1782299597118,-0.023928,2.380858,9.818851,0.088605,0.164711,-0.050688,0.20625,-38.100002,-43.200001
1782299597121,-0.028714,2.299503,10.156239,0.089827,0.172653,-0.047634,0.20625,-38.100002,-43.200001
1782299597129,-0.028714,2.299503,10.156239,0.089827,0.172653,-0.047634,0.31875,-37.518753,-42.731251
1782299597130,-0.028714,2.299503,10.156239,0.107542,0.187313,-0.039692,0.31875,-37.518753,-42.731251
1782299597131,-0.129212,2.127219,10.409878,0.107542,0.187313,-0.039692,0.31875,-37.518753,-42.731251
1782299597140,-0.129212,2.127219,10.409878,0.1277,0.199531,-0.032973,0.31875,-37.518753,-42.731251
1782299597141,-0.064606,1.995614,10.584554,0.1277,0.199531,-0.032973,0.825,-38.700001,-43.050003
1782299597148,-0.050249,1.799403,10.864514,0.143583,0.167766,-0.01709,1.05,-37.518753,-41.962502
1782299597156,-0.078963,1.722832,11.309579,0.16985,0.115231,0.003068,1.05,-37.518753,-41.962502
1782299597158,-0.078963,1.722832,11.309579,0.16985,0.115231,0.003068,0.525,-37.387501,-39.993752
1782299597164,-0.078963,1.722832,11.309579,0.226049,0.078579,0.018951,0.525,-37.387501,-39.993752
1782299597165,-0.122034,1.710868,11.692431,0.226049,0.078579,0.018951,0.525,-37.387501,-39.993752
1782299597169,-0.122034,1.710868,11.692431,0.226049,0.078579,0.018951,0.0,-37.950001,-41.981251
1782299597174,-0.086142,1.677369,11.757037,0.305462,0.066362,0.029335,0.0,-37.950001,-41.981251
1782299597180,-0.086142,1.677369,11.757037,0.305462,0.066362,0.029335,0.0,-37.950001,-41.981251
1782299597182,-0.112463,1.667797,11.53929,0.394037,0.025434,0.031779,0.0,-37.950001,-41.981251
1782299597198,-0.071785,1.70369,11.156438,0.453902,-0.027711,0.026281,0.6,-38.118752,-41.362503
1782299597200,0.043071,1.823331,10.898014,0.471617,-0.085132,0.014675,1.59375,-36.65625,-41.043751
1782299597207,0.043071,1.823331,10.898014,0.445961,-0.130947,-0.007927,1.59375,-36.65625,-41.043751
1782299597208,0.112463,1.928615,10.797515,0.445961,-0.130947,-0.007927,-0.075,-37.537502,-39.693752
1782299597216,0.114855,2.017149,10.69941,0.38915,-0.166377,-0.03786,-0.075,-37.537502,-39.693752
1782299597218,0.114855,2.017149,10.69941,0.38915,-0.166377,-0.03786,0.09375,-37.387501,-40.293751
1782299597224,0.114855,2.017149,10.69941,0.312792,-0.197531,-0.07329,0.09375,-37.387501,-40.293751
1782299597225,0.248854,2.100898,10.639589,0.312792,-0.197531,-0.07329,0.09375,-37.387501,-40.293751
1782299597229,0.248854,2.100898,10.639589,0.312792,-0.197531,-0.07329,-0.65625,-37.818752,-40.3125
1782299597233,0.33021,2.07697,10.634803,0.227882,-0.207916,-0.11544,-0.65625,-37.818752,-40.3125
1782299597238,0.33021,2.07697,10.634803,0.227882,-0.207916,-0.11544,0.58125,-38.868752,-40.012501
1782299597242,0.337388,1.976472,10.596518,0.158243,-0.192034,-0.157589,0.58125,-38.868752,-40.012501
1782299597249,0.337388,1.976472,10.596518,0.158243,-0.192034,-0.157589,0.975,-37.987503,-39.09375
1782299597250,0.337388,1.976472,10.596518,0.103266,-0.147441,-0.205237,0.975,-37.987503,-39.09375
1782299597251,0.543171,1.622334,10.4027,0.103266,-0.147441,-0.205237,0.975,-37.987503,-39.09375
1782299597261,0.339781,1.383052,10.390735,0.044623,-0.103458,-0.281595,0.675,-38.737503,-38.643753
1782299597269,0.349352,1.529014,10.565411,-0.006079,-0.044815,-0.318858,0.975,-37.987503,-39.393753
1782299597277,0.478565,1.404587,10.780765,-0.050672,0.022991,-0.347568,0.975,-37.987503,-39.393753
1782299597280,0.478565,1.404587,10.780765,-0.050672,0.022991,-0.347568,0.1875,-37.537502,-38.625
1782299597285,0.59342,1.162912,10.931513,-0.101374,0.094462,-0.362229,0.1875,-37.537502,-38.625
1782299597301,0.634098,0.993021,11.137296,-0.154519,0.151272,-0.361618,0.1875,-36.956253,-39.393753
1782299597302,0.61017,0.827917,11.285651,-0.196669,0.19892,-0.351844,0.1875,-36.956253,-39.393753
1782299597308,0.61017,0.827917,11.285651,-0.196669,0.19892,-0.351844,1.725,-37.256252,-39.693752
1782299597310,0.61017,0.827917,11.285651,-0.216217,0.244735,-0.334129,1.725,-37.256252,-39.693752
1782299597311,0.555135,0.658026,11.309579,-0.216217,0.244735,-0.334129,1.725,-37.256252,-39.693752
1782299597319,0.555135,0.658026,11.309579,-0.19728,0.26245,-0.312138,1.725,-37.256252,-39.693752
1782299597321,0.562313,0.51685,11.235402,-0.19728,0.26245,-0.312138,2.5875,-36.693752,-38.775002
1782299597330,0.535992,0.440279,11.07269,-0.141691,0.244124,-0.295034,1.51875,-37.856251,-37.725002
1782299597337,0.535992,0.440279,11.07269,-0.066555,0.200142,-0.288925,1.51875,-37.856251,-37.725002
1782299597339,0.521635,0.320638,10.718552,-0.066555,0.200142,-0.288925,1.51875,-37.856251,-37.725002
1782299597340,0.521635,0.320638,10.718552,-0.066555,0.200142,-0.288925,3.0,-36.412502,-38.175003
1782299597346,0.452243,0.325424,10.230417,0.004916,0.131725,-0.29931,3.0,-36.412502,-38.175003
1782299597350,0.452243,0.325424,10.230417,0.004916,0.131725,-0.29931,2.98125,-35.962502,-37.706253
1782299597353,0.311067,0.413958,9.663317,0.056229,0.063919,-0.313971,2.98125,-35.962502,-37.706253
1782299597359,0.311067,0.413958,9.663317,0.056229,0.063919,-0.313971,2.75625,-38.025002,-38.325001
1782299597362,0.277567,0.586242,9.191931,0.073333,0.00833,-0.326188,2.75625,-38.025002,-38.325001
1782299597368,0.277567,0.586242,9.191931,0.073333,0.00833,-0.326188,3.58125,-35.681252,-38.15625
1782299597370,0.200997,0.803988,8.835401,0.053786,-0.047259,-0.335351,3.58125,-35.681252,-38.15625
1782299597379,0.200997,0.803988,8.835401,0.006749,-0.099793,-0.348179,3.58125,-35.681252,-38.15625
1782299597381,0.20339,0.949951,8.610475,0.006749,-0.099793,-0.348179,3.1125,-36.262501,-37.106251
1782299597389,0.18664,1.088734,8.490835,-0.051894,-0.160269,-0.363451,2.71875,-36.543751,-38.325001
1782299597397,0.18664,1.088734,8.490835,-0.11237,-0.215857,-0.374446,2.71875,-36.543751,-38.325001
1782299597409,0.18664,1.088734,8.490835,-0.166737,-0.260451,-0.37689,2.71875,-36.543751,-38.325001
1782299597410,0.138784,1.299303,8.481263,-0.166737,-0.260451,-0.37689,3.28125,-34.631252,-38.756252
1782299597420,0.138784,1.395016,8.55544,-0.203388,-0.28122,-0.366505,4.275,-34.96875,-36.637501
1782299597423,0.184247,1.440479,8.629618,-0.216217,-0.265337,-0.347568,4.275,-34.96875,-36.637501
1782299597429,0.184247,1.440479,8.629618,-0.216217,-0.265337,-0.347568,3.0375,-34.800003,-36.018753
1782299597430,0.301496,1.339981,8.643975,-0.207054,-0.214636,-0.324966,3.0375,-34.800003,-36.018753
1782299597440,0.382852,1.213161,8.57219,-0.187506,-0.153549,-0.307251,2.98125,-35.662502,-38.15625
1782299597449,0.442672,1.107877,8.584155,-0.173456,-0.099793,-0.299921,2.98125,-35.662502,-38.15625
1782299597450,0.442672,1.107877,8.584155,-0.173456,-0.099793,-0.299921,3.975,-34.650002,-37.387501
1782299597457,0.509671,0.842274,8.727724,-0.167347,-0.053367,-0.302975,3.975,-34.650002,-37.387501
1782299597459,0.509671,0.842274,8.727724,-0.167347,-0.053367,-0.302975,3.05625,-34.800003,-36.787502
1782299597465,0.509671,0.842274,8.727724,-0.1759,-0.022824,-0.312749,3.05625,-34.800003,-36.787502
1782299597466,0.607777,0.636491,8.847365,-0.1759,-0.022824,-0.312749,3.05625,-34.800003,-36.787502
1782299597469,0.607777,0.636491,8.847365,-0.1759,-0.022824,-0.312749,2.5875,-34.050003,-37.087502
1782299597473,0.607777,0.636491,8.847365,-0.200945,-0.006942,-0.326799,2.5875,-34.050003,-37.087502
1782299597474,0.619741,0.490529,8.990934,-0.200945,-0.006942,-0.326799,2.5875,-34.050003,-37.087502
1782299597479,0.619741,0.490529,8.990934,-0.200945,-0.006942,-0.326799,2.55,-33.018753,-36.768753
1782299597482,0.619741,0.490529,8.990934,-0.226601,0.013828,-0.332297,2.55,-33.018753,-36.768753
1782299597483,0.638884,0.40678,9.232609,-0.226601,0.013828,-0.332297,2.55,-33.018753,-36.768753
1782299597489,0.638884,0.40678,9.232609,-0.226601,0.013828,-0.332297,5.475,-34.6875,-36.637501
1782299597491,0.658026,0.332602,9.467106,-0.233321,0.070027,-0.324355,5.475,-34.6875,-36.637501
1782299597510,0.533599,0.232104,9.378571,-0.168569,0.246567,-0.28526,4.5375,-32.606251,-37.518753
1782299597517,0.464208,0.275175,9.060326,-0.117867,0.305821,-0.262047,4.5375,-32.606251,-37.518753
1782299597518,0.464208,0.275175,9.060326,-0.117867,0.305821,-0.262047,3.75,-33.037502,-36.46875
1782299597525,0.411565,0.421137,8.754045,-0.068998,0.336975,-0.236391,3.75,-33.037502,-36.46875
1782299597530,0.411565,0.421137,8.754045,-0.068998,0.336975,-0.236391,2.56875,-33.018753,-37.068752
1782299597534,0.368495,0.564706,8.402299,-0.026238,0.359577,-0.210124,2.56875,-33.018753,-37.068752
1782299597539,0.368495,0.564706,8.402299,-0.026238,0.359577,-0.210124,4.89375,-31.725,-35.850002
1782299597542,0.248854,0.717847,8.091233,-0.002414,0.367518,-0.185078,4.89375,-31.725,-35.850002
1782299597549,0.248854,0.717847,8.091233,-0.002414,0.367518,-0.185078,5.38125,-33.65625,-35.100002
1782299597550,0.248854,0.717847,8.091233,-0.008523,0.350414,-0.170417,5.38125,-33.65625,-35.100002
1782299597551,0.074178,0.885344,7.871093,-0.008523,0.350414,-0.170417,5.38125,-33.65625,-35.100002
1782299597560,-0.023928,1.0002,7.662918,-0.040898,0.285052,-0.156978,4.81875,-33.356251,-36.46875
1782299597569,-0.023928,1.0002,7.662918,-0.087324,0.167766,-0.148426,4.81875,-33.356251,-36.46875
1782299597570,-0.023928,1.0002,7.662918,-0.087324,0.167766,-0.148426,5.64375,-31.743752,-35.53125
1782299597571,-0.162712,1.103091,7.62224,-0.087324,0.167766,-0.148426,5.64375,-31.743752,-35.53125
1782299597577,-0.256032,1.177269,7.705988,-0.136804,0.033986,-0.144761,5.64375,-31.743752,-35.53125
1782299597580,-0.256032,1.177269,7.705988,-0.136804,0.033986,-0.144761,5.775,-33.9375,-37.387501
1782299597586,-0.248854,1.191626,7.9022,-0.186284,-0.085132,-0.143539,5.775,-33.9375,-37.387501
1782299597590,-0.248854,1.191626,7.9022,-0.186284,-0.085132,-0.143539,4.93125,-32.475002,-36.150002
1782299597594,-0.212961,1.174876,8.191731,-0.24004,-0.140721,-0.13682,4.93125,-32.475002,-36.150002
1782299597609,-0.205783,1.136591,8.569797,-0.294407,-0.116897,-0.118494,4.95,-33.206253,-36.168751
1782299597611,-0.165105,1.098306,8.911971,-0.33167,-0.028933,-0.093448,4.95,-33.206253,-36.168751
1782299597620,-0.143569,1.033699,9.206288,-0.326783,0.071249,-0.070846,5.68125,-31.743752,-36.600002
1782299597630,-0.143569,1.0002,9.471892,-0.271194,0.158603,-0.056797,5.5125,-31.593752,-36.450001
1782299597636,-0.148355,1.019342,9.593925,-0.177121,0.230685,-0.050077,5.5125,-31.593752,-36.450001
1782299597638,-0.148355,1.019342,9.593925,-0.177121,0.230685,-0.050077,5.68125,-32.475002,-35.850002
1782299597645,-0.138784,1.083949,9.615461,-0.067776,0.285052,-0.047634,5.68125,-32.475002,-35.850002
1782299597649,-0.138784,1.083949,9.615461,-0.067776,0.285052,-0.047634,5.68125,-32.475002,-35.850002
1782299597655,-0.107677,1.134198,9.53889,0.020799,0.314984,-0.048855,5.68125,-32.475002,-35.850002
1782299597660,-0.107677,1.134198,9.53889,0.020799,0.314984,-0.048855,4.48125,-31.575001,-37.050003
1782299597663,-0.100499,1.18684,9.443178,0.073944,0.299712,-0.054964,4.48125,-31.575001,-37.050003
1782299597669,-0.100499,1.18684,9.443178,0.073944,0.299712,-0.054964,4.48125,-31.575001,-37.050003
1782299597671,-0.09332,1.26341,9.452749,0.092881,0.236793,-0.064127,4.48125,-31.575001,-37.050003
1782299597680,-0.081356,1.347159,9.440785,0.088605,0.148218,-0.074512,4.10625,-31.44375,-34.78125
1782299597690,-0.057428,1.409373,9.467106,0.073333,0.062697,-0.08062,5.25,-30.731251,-33.5625
1782299597697,-0.028714,1.430908,9.47907,0.039736,0.008941,-0.079399,5.25,-30.731251,-33.5625
1782299597698,-0.028714,1.430908,9.47907,0.039736,0.008941,-0.079399,7.89375,-31.781252,-34.78125
1782299597713,-0.028714,1.430908,9.47907,-0.003025,-0.016105,-0.067181,7.89375,-31.781252,-34.78125
1782299597714,0.090927,1.435694,9.701602,-0.037233,-0.017937,-0.05252,4.89375,-31.725,-35.850002
1782299597719,0.090927,1.435694,9.701602,-0.037233,-0.017937,-0.05252,5.08125,-32.325001,-36.0
1782299597722,0.090927,1.435694,9.701602,-0.04212,-0.006331,-0.034195,5.08125,-32.325001,-36.0
1782299597723,0.12682,1.454836,9.907385,-0.04212,-0.006331,-0.034195,5.08125,-32.325001,-36.0
1782299597729,0.12682,1.454836,9.907385,-0.04212,-0.006331,-0.034195,5.53125,-31.293751,-37.050003
1782299597731,0.12682,1.454836,9.907385,-0.012188,0.010773,-0.014036,5.53125,-31.293751,-37.050003
1782299597732,0.141177,1.48355,9.9361,-0.012188,0.010773,-0.014036,5.53125,-31.293751,-37.050003
1782299597739,0.141177,1.48355,9.9361,-0.012188,0.010773,-0.014036,4.55625,-31.743752,-34.331253
1782299597740,0.174676,1.519442,9.873886,0.036071,0.030321,0.006733,4.55625,-31.743752,-34.331253
1782299597750,0.174676,1.519442,9.873886,0.084329,0.041317,0.028114,4.55625,-31.743752,-34.331253
1782299597751,0.198604,1.533799,9.814065,0.084329,0.041317,0.028114,4.85625,-31.143751,-35.081253
1782299597757,0.198604,1.533799,9.814065,0.12037,0.040095,0.045829,4.85625,-31.143751,-35.081253
1782299597758,0.20339,1.552942,9.821244,0.12037,0.040095,0.045829,4.85625,-31.143751,-35.081253
1782299597759,0.20339,1.552942,9.821244,0.12037,0.040095,0.045829,5.00625,-30.862501,-35.231251
1782299597765,0.20339,1.552942,9.821244,0.141139,0.031543,0.0611,5.00625,-30.862501,-35.231251
1782299597766,0.177069,1.600798,9.823637,0.141139,0.031543,0.0611,5.00625,-30.862501,-35.231251
1782299597769,0.177069,1.600798,9.823637,0.141139,0.031543,0.0611,3.84375,-31.725,-35.850002
1782299597774,0.177069,1.600798,9.823637,0.149081,0.018104,0.073318,3.84375,-31.725,-35.850002
1782299597775,0.16989,1.655833,9.878671,0.149081,0.018104,0.073318,3.84375,-31.725,-35.850002
1782299597780,0.16989,1.655833,9.878671,0.149081,0.018104,0.073318,4.05,-30.4125,-34.3125
1782299597783,0.16989,1.655833,9.878671,0.1558,0.009552,0.084313,4.05,-30.4125,-34.3125
1782299597784,0.124427,1.677369,9.974384,0.1558,0.009552,0.084313,4.05,-30.4125,-34.3125
1782299597789,0.124427,1.677369,9.974384,0.1558,0.009552,0.084313,4.33125,-29.531252,-34.612503
1782299597791,0.07657,1.665405,10.077276,0.16985,0.009552,0.094698,4.33125,-29.531252,-34.612503
1782299597799,0.07657,1.665405,10.077276,0.16985,0.009552,0.094698,3.73125,-31.44375,-32.493752
1782299597800,0.035892,1.607977,10.223238,0.190619,0.020547,0.105693,3.73125,-31.44375,-32.493752
1782299597809,0.047856,1.56012,10.393128,0.214443,0.035208,0.1173,3.6375,-30.543751,-35.231251
1782299597817,0.004786,1.509871,10.622839,0.239488,0.035819,0.124019,3.6375,-30.543751,-35.231251
1782299597818,0.004786,1.509871,10.622839,0.239488,0.035819,0.124019,3.61875,-31.293751,-33.862503
1782299597825,0.004786,1.509871,10.622839,0.26881,0.032154,0.13135,3.61875,-31.293751,-33.862503
1782299597826,0.057428,1.476372,10.866908,0.26881,0.032154,0.13135,3.61875,-31.293751,-33.862503
1782299597829,0.057428,1.476372,10.866908,0.26881,0.032154,0.13135,4.3125,-30.862501,-32.643753
1782299597834,0.057428,1.476372,10.866908,0.302408,0.013217,0.133793,4.3125,-30.862501,-32.643753
1782299597835,0.055035,1.426122,11.020048,0.302408,0.013217,0.133793,4.3125,-30.862501,-32.643753
1782299597839,0.055035,1.426122,11.020048,0.302408,0.013217,0.133793,4.3875,-31.293751,-34.631252
1782299597843,-0.031107,1.430908,11.075082,0.337227,-0.014883,0.134404,4.3875,-31.293751,-34.631252
1782299597849,-0.031107,1.430908,11.075082,0.337227,-0.014883,0.134404,4.425,-29.700001,-32.493752
1782299597854,-0.131605,1.5003,11.012869,0.361661,-0.061309,0.131961,4.425,-29.700001,-32.493752
1782299597860,-0.131605,1.5003,11.012869,0.365938,-0.110178,0.129517,4.425,-29.700001,-32.493752
1782299597861,-0.20339,1.603191,10.941084,0.365938,-0.110178,0.129517,4.29375,-30.581251,-32.043751
1782299597871,-0.224925,1.715654,10.883657,0.348222,-0.137056,0.127685,4.29375,-30.581251,-32.043751
1782299597872,-0.224925,1.715654,10.883657,0.348222,-0.137056,0.127685,3.3,-31.743752,-32.962502
1782299597877,-0.265603,1.76351,10.778372,0.307905,-0.16149,0.12463,3.3,-31.743752,-32.962502
1782299597879,-0.265603,1.76351,10.778372,0.307905,-0.16149,0.12463,3.525,-29.831251,-32.643753
1782299597886,-0.356531,1.715654,10.785552,0.248041,-0.198753,0.121576,3.525,-29.831251,-32.643753
1782299597890,-0.356531,1.715654,10.785552,0.248041,-0.198753,0.121576,4.33125,-31.312502,-32.662502
1782299597894,-0.471386,1.672583,10.965013,0.178402,-0.242125,0.120354,4.33125,-31.312502,-32.662502
1782299597899,-0.471386,1.672583,10.965013,0.178402,-0.242125,0.120354,2.775,-30.262501,-32.34375
1782299597902,-0.471386,1.672583,10.965013,0.121592,-0.267781,0.117911,2.775,-30.262501,-32.34375
1782299597903,-0.552742,1.663012,11.256938,0.121592,-0.267781,0.117911,2.775,-30.262501,-32.34375
1782299597908,-0.552742,1.663012,11.256938,0.121592,-0.267781,0.117911,3.1875,-29.681252,-31.725
1782299597911,-0.569492,1.648655,11.465113,0.097157,-0.261672,0.112413,3.1875,-29.681252,-31.725
1782299597919,-0.569492,1.648655,11.465113,0.097157,-0.261672,0.112413,4.55625,-29.85,-31.575001
1782299597920,-0.526421,1.607977,11.41247,0.088605,-0.22502,0.105083,4.55625,-29.85,-31.575001
1782299597930,-0.449851,1.473979,11.273687,0.06417,-0.190812,0.097141,3.84375,-31.312502,-31.593752
1782299597937,-0.332602,1.31366,11.290436,0.00736,-0.176762,0.091033,3.84375,-31.312502,-31.593752
1782299597938,-0.332602,1.31366,11.290436,0.00736,-0.176762,0.091033,2.7,-29.531252,-30.50625
1782299597946,-0.18664,1.09352,11.520148,-0.07755,-0.156604,0.087978,2.7,-29.531252,-30.50625
1782299597948,-0.18664,1.09352,11.520148,-0.07755,-0.156604,0.087978,2.60625,-30.4125,-31.743752
1782299597954,-0.18664,1.09352,11.520148,-0.1759,-0.118119,0.083702,2.60625,-30.4125,-31.743752
1782299597955,-0.057428,0.827917,11.819251,-0.1759,-0.118119,0.083702,2.60625,-30.4125,-31.743752
1782299597960,-0.057428,0.827917,11.819251,-0.1759,-0.118119,0.083702,2.625,-29.962502,-32.493752
1782299597963,0.014357,0.514457,12.05614,-0.274249,-0.070472,0.084313,2.625,-29.962502,-32.493752
1782299597969,0.014357,0.514457,12.05614,-0.274249,-0.070472,0.084313,1.03125,-28.931252,-31.106251
1782299597971,0.014357,0.514457,12.05614,-0.357937,-0.031376,0.088589,1.03125,-28.931252,-31.106251
1782299597973,0.023928,0.162712,12.235602,-0.357937,-0.031376,0.088589,1.03125,-28.931252,-31.106251
1782299597980,0.023928,0.162712,12.235602,-0.357937,-0.031376,0.088589,3.7875,-30.281252,-30.825001
1782299597982,0.0335,-0.165105,12.448563,-0.405585,-0.011218,0.101417,3.7875,-30.281252,-30.825001
1782299597990,0.0335,-0.165105,12.448563,-0.387259,0.011995,0.1173,3.7875,-30.281252,-30.825001
1782299597991,-0.028714,-0.385244,12.55624,-0.387259,0.011995,0.1173,1.8375,-28.63125,-32.925003
1782299597997,-0.174676,-0.435494,12.412671,-0.291353,0.032154,0.134404,1.8375,-28.63125,-32.925003
1782299597999,-0.174676,-0.435494,12.412671,-0.291353,0.032154,0.134404,2.85,-28.200001,-32.175003
1782299598006,-0.311067,-0.29671,11.926927,-0.138637,0.05781,0.153341,2.85,-28.200001,-32.175003
1782299598008,-0.311067,-0.29671,11.926927,-0.138637,0.05781,0.153341,1.89375,-29.531252,-29.456251
1782299598021,-0.430708,-0.071785,11.041584,0.03546,0.074914,0.175332,2.53125,-26.418751,-32.90625
1782299598023,-0.497707,0.229711,10.084454,0.186954,0.076747,0.19488,2.53125,-26.418751,-32.90625
1782299598029,-0.497707,0.229711,10.084454,0.186954,0.076747,0.19488,2.25,-28.050001,-32.006252
1782299598031,-0.583849,0.579063,9.244573,0.284082,0.065751,0.212595,2.25,-28.050001,-32.006252
1782299598038,-0.583849,0.579063,9.244573,0.284082,0.065751,0.212595,2.68125,-28.35,-31.25625
1782299598039,-0.583849,0.579063,9.244573,0.314625,0.051701,0.225423,2.68125,-28.35,-31.25625
1782299598040,-0.734597,0.976272,8.557833,0.314625,0.051701,0.225423,2.68125,-28.35,-31.25625
1782299598050,-0.832702,1.292124,8.017056,0.277973,0.039484,0.235197,1.95,-29.081251,-31.575001
1782299598057,-0.887737,1.45005,7.562419,0.1839,0.02238,0.238862,1.95,-29.081251,-31.575001
1782299598058,-0.887737,1.45005,7.562419,0.1839,0.02238,0.238862,2.925,-28.06875,-30.0375
1782299598066,-1.107877,1.469193,7.507384,0.037903,-0.019159,0.238251,2.925,-28.06875,-30.0375
1782299598069,-1.107877,1.469193,7.507384,0.037903,-0.019159,0.238251,0.84375,-27.000002,-31.556252
1782299598075,-0.935594,1.337588,7.761024,-0.125198,-0.036263,0.241916,0.84375,-27.000002,-31.556252
1782299598079,-0.935594,1.337588,7.761024,-0.125198,-0.036263,0.241916,1.7625,-29.231251,-30.356251
1782299598083,-1.019342,1.086342,8.241981,-0.257755,-0.060087,0.249247,1.7625,-29.231251,-30.356251
1782299598089,-1.019342,1.086342,8.241981,-0.257755,-0.060087,0.249247,0.3375,-26.268751,-30.7875
1782299598091,-1.019342,1.086342,8.241981,-0.336557,-0.0833,0.25169,0.3375,-26.268751,-30.7875
1782299598092,-1.098306,0.825524,8.837794,-0.336557,-0.0833,0.25169,0.3375,-26.268751,-30.7875
1782299598099,-1.098306,0.825524,8.837794,-0.336557,-0.0833,0.25169,0.43125,-28.312502,-32.025002
1782299598100,-0.988236,0.643669,9.345072,-0.35305,-0.07658,0.246192,0.43125,-28.312502,-32.025002
1782299598110,-0.875773,0.540778,9.60589,-0.304181,-0.049702,0.243749,0.3375,-25.518751,-31.5375
1782299598127,-0.674776,0.461815,9.498212,-0.219882,-0.01977,0.24436,0.3375,-25.518751,-31.5375
1782299598128,-0.447458,0.425922,9.318751,-0.12703,-0.020992,0.244971,1.89375,-26.56875,-32.006252
1782299598129,-0.447458,0.425922,9.318751,-0.12703,-0.020992,0.244971,1.89375,-26.56875,-32.006252
1782299598135,-0.27996,0.507278,9.177575,-0.035401,-0.037485,0.246192,1.89375,-26.56875,-32.006252
1782299598140,-0.27996,0.507278,9.177575,-0.035401,-0.037485,0.246192,1.14375,-26.56875,-32.306252
1782299598143,-0.174676,0.643669,8.983756,0.045844,-0.052757,0.246803,1.14375,-26.56875,-32.306252
1782299598149,-0.174676,0.643669,8.983756,0.045844,-0.052757,0.246803,0.3375,-26.268751,-30.7875
1782299598151,-0.12682,0.708275,8.770794,0.094714,-0.064363,0.246192,0.3375,-26.268751,-30.7875
1782299598158,-0.12682,0.708275,8.770794,0.094714,-0.064363,0.246192,1.9125,-26.56875,-32.606251
1782299598160,-0.086142,0.744168,8.670296,0.0996,-0.089408,0.244971,1.9125,-26.56875,-32.606251
1782299598170,-0.095713,0.758525,8.720545,0.063559,-0.116897,0.235197,1.06875,-25.5375,-30.768751
1782299598177,-0.189033,0.79681,8.785151,0.010414,-0.141943,0.226034,1.06875,-25.5375,-30.768751
1782299598179,-0.189033,0.79681,8.785151,0.010414,-0.141943,0.226034,1.10625,-26.56875,-30.7875
1782299598186,-0.256032,0.789631,8.880865,-0.042731,-0.152938,0.218093,1.10625,-26.56875,-30.7875
1782299598189,-0.256032,0.789631,8.880865,-0.042731,-0.152938,0.218093,0.075,-27.000002,-31.556252
1782299598194,-0.256032,0.789631,8.880865,-0.075107,-0.135834,0.211373,0.075,-27.000002,-31.556252
1782299598195,-0.263211,0.765703,8.909578,-0.075107,-0.135834,0.211373,0.075,-27.000002,-31.556252
1782299598199,-0.263211,0.765703,8.909578,-0.075107,-0.135834,0.211373,0.16875,-25.668751,-31.087502
1782299598204,-0.241675,0.746561,8.888043,-0.081216,-0.103458,0.20221,0.16875,-25.668751,-31.087502
1782299598209,-0.241675,0.746561,8.888043,-0.081216,-0.103458,0.20221,1.8,-25.556252,-30.018751
1782299598212,-0.244068,0.765703,8.746867,-0.058003,-0.070472,0.193658,1.8,-25.556252,-30.018751
1782299598226,-0.20339,0.820738,8.533906,-0.018907,-0.035041,0.185106,0.4875,-26.418751,-30.637501
1782299598230,-0.153141,0.882952,8.301801,0.025075,0.007719,0.176554,1.66875,-24.956251,-31.368752
1782299598237,-0.086142,0.940379,8.115161,0.062338,0.051091,0.167391,1.66875,-24.956251,-31.368752
1782299598239,-0.086142,0.940379,8.115161,0.062338,0.051091,0.167391,1.96875,-24.956251,-31.368752
1782299598246,-0.031107,1.026521,8.076876,0.085551,0.092018,0.157617,1.96875,-24.956251,-31.368752
1782299598248,-0.031107,1.026521,8.076876,0.085551,0.092018,0.157617,0.80625,-25.518751,-31.987501
1782299598254,-0.031107,1.026521,8.076876,0.093492,0.116453,0.146011,0.80625,-25.518751,-31.987501
1782299598255,-0.050249,1.09352,8.141482,0.093492,0.116453,0.146011,0.80625,-25.518751,-31.987501
1782299598260,-0.050249,1.09352,8.141482,0.093492,0.116453,0.146011,0.95625,-26.418751,-31.087502
1782299598263,-0.050249,1.09352,8.141482,0.087383,0.124394,0.130739,0.95625,-26.418751,-31.087502
1782299598264,-0.083749,1.141376,8.316158,0.087383,0.124394,0.130739,0.95625,-26.418751,-31.087502
1782299598269,-0.083749,1.141376,8.316158,0.087383,0.124394,0.130739,-0.46875,-24.0375,-31.218752
1782299598272,-0.083749,1.141376,8.316158,0.079442,0.115842,0.111802,-0.46875,-24.0375,-31.218752
1782299598273,-0.162712,1.191626,8.483655,0.079442,0.115842,0.111802,-0.46875,-24.0375,-31.218752
1782299598279,-0.162712,1.191626,8.483655,0.079442,0.115842,0.111802,0.75,-26.587502,-29.418751
1782299598281,-0.227318,1.275374,8.593726,0.080053,0.089575,0.088589,0.75,-26.587502,-29.418751
1782299598290,-0.234497,1.344766,8.627225,0.093492,0.060864,0.063544,0.7875,-25.5375,-31.237501
1782299598298,-0.200997,1.35673,8.576976,0.111207,0.02971,0.034222,0.7875,-25.5375,-31.237501
1782299598299,-0.200997,1.35673,8.576976,0.111207,0.02971,0.034222,0.9,-24.356251,-31.368752
1782299598307,-0.179462,1.411765,8.51237,0.1277,-0.000833,0.007344,0.9,-24.356251,-31.368752
1782299598309,-0.179462,1.411765,8.51237,0.1277,-0.000833,0.007344,-0.825,-24.056252,-30.000002
1782299598315,-0.124427,1.440479,8.41905,0.135641,-0.024046,-0.013425,-0.825,-24.056252,-30.000002
1782299598321,-0.124427,1.440479,8.41905,0.135641,-0.024046,-0.013425,0.15,-24.337502,-31.668751
1782299598335,-0.023928,1.469193,8.356836,0.132587,-0.028322,-0.02381,0.45,-24.356251,-31.668751
1782299598338,-0.023928,1.469193,8.356836,0.132587,-0.028322,-0.02381,0.375,-23.925001,-29.85
1782299598340,0.22014,1.536192,8.60569,0.109985,0.01566,-0.02381,0.375,-23.925001,-29.85
1782299598349,0.22014,1.536192,8.60569,0.109985,0.01566,-0.02381,0.73125,-25.837502,-29.718752
1782299598350,0.236889,1.581656,8.799509,0.109985,0.035819,-0.017701,0.73125,-25.837502,-29.718752
1782299598357,0.181855,1.615155,8.962221,0.121592,0.041317,-0.015258,0.73125,-25.837502,-29.718752
1782299598359,0.181855,1.615155,8.962221,0.121592,0.041317,-0.015258,2.49375,-23.0625,-30.750002
1782299598366,0.083749,1.631905,9.022041,0.133809,0.030932,-0.013425,2.49375,-23.0625,-30.750002
1782299598368,0.083749,1.631905,9.022041,0.133809,0.030932,-0.013425,0.39375,-23.625,-30.300001
1782299598375,0.011964,1.658226,9.084254,0.132587,0.001,-0.013425,0.39375,-23.625,-30.300001
1782299598380,0.011964,1.658226,9.084254,0.132587,0.001,-0.013425,1.425,-24.825001,-28.650002
1782299598383,0.011964,1.658226,9.084254,0.116094,-0.038707,-0.013425,1.425,-24.825001,-28.650002
1782299598384,-0.069392,1.622334,9.208681,0.116094,-0.038707,-0.013425,1.425,-24.825001,-28.650002
1782299598389,-0.069392,1.622334,9.208681,0.116094,-0.038707,-0.013425,-0.075,-24.50625,-29.400002
1782299598392,-0.136391,1.562513,9.435999,0.088605,-0.082078,-0.018923,-0.075,-24.50625,-29.400002
1782299598399,-0.136391,1.562513,9.435999,0.088605,-0.082078,-0.018923,-1.275,-25.237501,-28.650002
1782299598400,-0.136391,1.562513,9.435999,0.062338,-0.107734,-0.025642,-1.275,-25.237501,-28.650002
1782299598402,-0.153141,1.519442,9.703995,0.062338,-0.107734,-0.025642,-1.275,-25.237501,-28.650002
1782299598411,-0.11007,1.464407,9.9361,0.039125,-0.108956,-0.034195,1.85625,-23.643751,-28.781252
1782299598422,-0.07657,1.414158,10.139489,0.029962,-0.093684,-0.047023,0.84375,-24.656252,-29.550001
1782299598426,-0.040678,1.339981,10.299808,0.036071,-0.066806,-0.062294,0.84375,-24.656252,-29.550001
1782299598434,-0.007178,1.29691,10.481662,0.05012,-0.044815,-0.078177,1.425,-24.825001,-28.650002
1782299598439,-0.007178,1.29691,10.481662,0.05012,-0.044815,-0.078177,1.35,-22.3125,-28.931252
1782299598443,0.002393,1.258625,10.711374,0.066003,-0.022213,-0.094059,1.35,-22.3125,-28.931252
1782299598448,0.002393,1.258625,10.711374,0.066003,-0.022213,-0.094059,2.025,-23.793751,-29.400002
1782299598452,-0.026321,1.189233,11.008084,0.082496,-0.007553,-0.10872,2.025,-23.793751,-29.400002
1782299598459,-0.026321,1.189233,11.008084,0.082496,-0.007553,-0.10872,0.8625,-25.406252,-29.1
1782299598460,-0.071785,1.141376,11.25933,0.103877,0.005887,-0.123381,0.8625,-25.406252,-29.1
1782299598470,-0.078963,1.06002,11.407685,0.131365,0.026045,-0.138652,0.80625,-23.19375,-29.531252
1782299598479,-0.078963,1.06002,11.407685,0.169239,0.048647,-0.148426,0.80625,-23.19375,-29.531252
1782299598480,-0.064606,1.026521,11.469899,0.169239,0.048647,-0.148426,0.825,-22.893751,-30.300001
1782299598487,-0.038285,1.074377,11.489041,0.209556,0.073082,-0.153924,0.825,-22.893751,-30.300001
1782299598489,-0.038285,1.074377,11.489041,0.209556,0.073082,-0.153924,0.24375,-24.50625,-29.700001
1782299598496,-0.043071,1.268196,11.402899,0.255982,0.093851,-0.154535,0.24375,-24.50625,-29.700001
1782299598500,-0.043071,1.268196,11.402899,0.255982,0.093851,-0.154535,0.65625,-23.775002,-29.400002
1782299598504,-0.043071,1.268196,11.402899,0.301186,0.105457,-0.146594,0.65625,-23.775002,-29.400002
1782299598505,-0.122034,1.51705,11.254545,0.301186,0.105457,-0.146594,0.65625,-23.775002,-29.400002
1782299598509,-0.122034,1.51705,11.254545,0.301186,0.105457,-0.146594,2.30625,-23.6625,-28.781252
1782299598512,-0.12682,1.737189,11.003298,0.329896,0.120118,-0.133765,2.30625,-23.6625,-28.781252
1782299598519,-0.12682,1.737189,11.003298,0.329896,0.120118,-0.133765,2.45625,-23.512501,-28.931252
1782299598521,-0.150748,1.883151,10.69941,0.315236,0.12134,-0.122159,2.45625,-23.512501,-28.931252
1782299598530,-0.150748,1.883151,10.69941,0.24743,0.100571,-0.112385,2.45625,-23.512501,-28.931252
1782299598531,-0.380459,2.057827,10.565411,0.24743,0.100571,-0.112385,1.70625,-24.093752,-28.63125
1782299598549,-0.227318,2.28036,10.548662,0.006138,-0.060087,-0.102611,0.95625,-24.525002,-28.181252
1782299598555,-0.246461,2.160719,10.862121,-0.136193,-0.115676,-0.109942,0.95625,-24.525002,-28.181252
1782299598559,-0.246461,2.160719,10.862121,-0.136193,-0.115676,-0.109942,1.3875,-23.0625,-28.931252
1782299598564,-0.09332,1.952543,11.130118,-0.26814,-0.137056,-0.128268,1.3875,-23.0625,-28.931252
1782299598569,-0.09332,1.952543,11.130118,-0.26814,-0.137056,-0.128268,2.60625,-23.962502,-28.781252
1782299598572,-0.035892,1.619941,11.307187,-0.394589,-0.149884,-0.152702,2.60625,-23.962502,-28.781252
1782299598579,-0.035892,1.619941,11.307187,-0.394589,-0.149884,-0.152702,0.6,-23.493752,-27.88125
1782299598581,0.007178,1.182054,11.611075,-0.516762,-0.18226,-0.182024,0.6,-23.493752,-27.88125
1782299598589,0.007178,1.182054,11.611075,-0.516762,-0.18226,-0.182024,2.23125,-22.481251,-28.012501
1782299598590,0.066999,0.677169,12.101604,-0.615722,-0.204251,-0.210124,2.23125,-22.481251,-28.012501
1782299598599,0.150748,0.200997,12.654346,-0.670089,-0.182871,-0.232115,2.23125,-22.481251,-28.012501
1782299598600,0.150748,0.200997,12.654346,-0.670089,-0.182871,-0.232115,1.74375,-21.150002,-27.69375
1782299598606,0.258425,-0.239282,12.912771,-0.657261,-0.115065,-0.252273,1.74375,-21.150002,-27.69375
1782299598609,0.258425,-0.239282,12.912771,-0.657261,-0.115065,-0.252273,1.74375,-21.150002,-27.69375
1782299598615,0.258425,-0.239282,12.912771,-0.568075,-0.061309,-0.260825,1.74375,-21.150002,-27.69375
1782299598616,0.332602,-0.557528,12.812272,-0.568075,-0.061309,-0.260825,1.74375,-21.150002,-27.69375
1782299598619,0.332602,-0.557528,12.812272,-0.568075,-0.061309,-0.260825,3.3375,-21.900002,-29.831251
1782299598623,0.332602,-0.557528,12.812272,-0.403752,-0.024046,-0.255938,3.3375,-21.900002,-29.831251
1782299598624,0.440279,-0.612563,12.520347,-0.403752,-0.024046,-0.255938,3.3375,-21.900002,-29.831251
1782299598629,0.440279,-0.612563,12.520347,-0.403752,-0.024046,-0.255938,3.46875,-21.6,-29.38125
1782299598633,0.492921,-0.495314,12.015462,-0.188728,0.016271,-0.241278,3.46875,-21.6,-29.38125
1782299598651,0.33021,0.01675,10.371593,0.206502,0.073693,-0.215621,1.7625,-21.150002,-28.462502
1782299598659,0.33021,0.01675,10.371593,0.285303,0.055367,-0.217454,1.7625,-21.150002,-28.462502
1782299598660,0.189033,0.265603,9.502998,0.285303,0.055367,-0.217454,2.64375,-21.31875,-27.393751
1782299598667,0.124427,0.567099,8.921543,0.259036,0.020547,-0.231504,2.64375,-21.31875,-27.393751
1782299598669,0.124427,0.567099,8.921543,0.259036,0.020547,-0.231504,1.9125,-21.300001,-28.1625
1782299598675,0.174676,0.79681,8.615261,0.163741,-0.001444,-0.251052,1.9125,-21.300001,-28.1625
1782299598679,0.174676,0.79681,8.615261,0.163741,-0.001444,-0.251052,2.325,-21.018751,-27.393751
1782299598683,0.22014,0.928415,8.452549,0.034849,-0.008163,-0.273043,2.325,-21.018751,-27.393751
1782299598689,0.22014,0.928415,8.452549,0.034849,-0.008163,-0.273043,2.5875,-20.587502,-26.775002
1782299598692,0.239282,0.947558,8.452549,-0.087324,-0.006331,-0.288314,2.5875,-20.587502,-26.775002
1782299598699,0.239282,0.947558,8.452549,-0.087324,-0.006331,-0.288314,2.475,-20.137501,-27.993752
1782299598700,0.239282,0.947558,8.452549,-0.174067,0.008941,-0.294423,2.475,-20.137501,-27.993752
1782299598701,0.174676,0.945165,8.663118,-0.174067,0.008941,-0.294423,2.475,-20.137501,-27.993752
1782299598710,0.165105,0.859023,8.957434,-0.208886,0.030932,-0.287703,4.36875,-21.168751,-29.831251
1782299598719,0.200997,0.696311,9.175182,-0.197891,0.053534,-0.273043,4.36875,-21.168751,-29.831251
1782299598720,0.200997,0.696311,9.175182,-0.197891,0.053534,-0.273043,2.86875,-21.900002,-29.062502
1782299598727,0.263211,0.521635,9.328322,-0.163682,0.062086,-0.255328,2.86875,-21.900002,-29.062502
1782299598729,0.263211,0.521635,9.328322,-0.163682,0.062086,-0.255328,3.6375,-21.900002,-29.531252
1782299598735,0.282353,0.361316,9.46232,-0.12703,0.05048,-0.240056,3.6375,-21.900002,-29.531252
1782299598751,0.184247,0.239282,9.500605,-0.100152,0.033986,-0.222952,4.425,-20.00625,-28.143751
1782299598753,0.138784,0.177069,9.517355,-0.085492,0.011995,-0.204015,4.425,-20.00625,-28.143751
1782299598758,0.138784,0.177069,9.517355,-0.085492,0.011995,-0.204015,3.20625,-19.837502,-27.993752
1782299598760,0.138784,0.177069,9.517355,-0.085492,-0.006331,-0.184467,3.20625,-19.837502,-27.993752
1782299598761,0.12682,0.129212,9.498212,-0.085492,-0.006331,-0.184467,3.20625,-19.837502,-27.993752
1782299598770,0.12682,0.129212,9.498212,-0.095265,-0.004498,-0.161865,3.20625,-19.837502,-27.993752
1782299598771,0.177069,0.114855,9.459927,-0.095265,-0.004498,-0.161865,4.125,-21.337502,-26.793751
1782299598780,0.239282,0.141177,9.352251,-0.100763,0.019936,-0.135598,4.51875,-20.2875,-30.731251
1782299598787,0.239282,0.141177,9.352251,-0.090989,0.077358,-0.106277,4.51875,-20.2875,-30.731251
1782299598788,0.265603,0.241675,9.184753,-0.090989,0.077358,-0.106277,4.51875,-20.2875,-30.731251
1782299598789,0.265603,0.241675,9.184753,-0.090989,0.077358,-0.106277,4.29375,-19.856251,-28.44375
1782299598796,0.246461,0.325424,8.995719,-0.058003,0.157992,-0.075122,4.29375,-19.856251,-28.44375
1782299598800,0.246461,0.325424,8.995719,-0.058003,0.157992,-0.075122,5.23125,-20.606251,-28.9125
1782299598805,0.20339,0.382852,8.77558,-0.015242,0.228241,-0.055575,5.23125,-20.606251,-28.9125
1782299598810,0.20339,0.382852,8.77558,-0.015242,0.228241,-0.055575,5.8125,-19.875,-29.043751
1782299598813,0.20339,0.382852,8.77558,0.019577,0.254508,-0.050688,5.8125,-19.875,-29.043751
1782299598814,0.143569,0.401994,8.593726,0.019577,0.254508,-0.050688,5.8125,-19.875,-29.043751
1782299598819,0.143569,0.401994,8.593726,0.019577,0.254508,-0.050688,5.0625,-20.456251,-28.762501
1782299598821,0.143569,0.401994,8.593726,0.030573,0.221522,-0.059851,5.0625,-20.456251,-28.762501
1782299598822,0.086142,0.461815,8.459728,0.030573,0.221522,-0.059851,5.0625,-20.456251,-28.762501
1782299598831,0.002393,0.562313,8.335301,0.020799,0.131725,-0.078788,4.275,-19.856251,-27.993752
1782299598840,-0.045464,0.658026,8.294623,0.001862,0.021158,-0.103222,5.1375,-18.993752,-27.375002
1782299598866,0.253639,0.866202,8.332908,-0.027459,-0.149273,-0.161865,4.4625,-21.0375,-27.843752
1782299598869,0.253639,0.866202,8.332908,-0.027459,-0.149273,-0.161865,3.99375,-21.1875,-27.69375
1782299598872,0.253639,0.866202,8.332908,-0.031125,-0.125449,-0.163698,3.99375,-21.1875,-27.69375
1782299598873,0.351745,0.930808,8.320943,-0.031125,-0.125449,-0.163698,3.99375,-21.1875,-27.69375
1782299598878,0.351745,0.930808,8.320943,-0.031125,-0.125449,-0.163698,5.41875,-19.143751,-26.925001
1782299598881,0.368495,0.947558,8.285052,-0.03479,-0.058254,-0.155146,5.41875,-19.143751,-26.925001
1782299598889,0.368495,0.947558,8.285052,-0.033568,0.024823,-0.135598,5.41875,-19.143751,-26.925001
1782299598890,0.339781,1.007378,8.270694,-0.033568,0.024823,-0.135598,4.05,-18.975,-26.775002
1782299598899,0.339781,1.007378,8.270694,-0.021962,0.10729,-0.109942,4.05,-18.975,-26.775002
1782299598900,0.289532,1.069592,8.282659,-0.021962,0.10729,-0.109942,4.05,-18.975,-26.775002
1782299598901,0.289532,1.069592,8.282659,-0.021962,0.10729,-0.109942,4.85625,-20.325001,-26.775002
1782299598906,0.289532,1.069592,8.282659,-0.003636,0.181816,-0.083064,4.85625,-20.325001,-26.775002
1782299598907,0.272782,1.11027,8.371193,-0.003636,0.181816,-0.083064,4.85625,-20.325001,-26.775002
1782299598908,0.272782,1.11027,8.371193,-0.003636,0.181816,-0.083064,4.2375,-19.875,-26.925001
1782299598915,0.239282,1.100698,8.498013,0.013469,0.239237,-0.061683,4.2375,-19.875,-26.925001
1782299598918,0.239282,1.100698,8.498013,0.013469,0.239237,-0.061683,3.13125,-22.050001,-27.862501
1782299598924,0.189033,1.158126,8.615261,0.022631,0.260006,-0.04519,3.13125,-22.050001,-27.862501
1782299598929,0.189033,1.158126,8.615261,0.022631,0.260006,-0.04519,5.04375,-20.456251,-27.69375
1782299598932,0.141177,1.201197,8.737295,0.022631,0.253287,-0.03114,5.04375,-20.456251,-27.69375
1782299598939,0.141177,1.201197,8.737295,0.022631,0.253287,-0.03114,5.15625,-20.625,-26.775002
1782299598941,0.124427,1.232304,8.871293,0.017134,0.226409,-0.020145,5.15625,-20.625,-26.775002
1782299598951,0.088534,1.265803,8.947863,0.013469,0.195865,-0.007316,5.85,-19.3125,-26.00625
1782299598959,0.035892,1.29691,8.959828,0.014079,0.17082,0.009788,5.175,-21.056252,-26.793751
1782299598967,-0.031107,1.330409,9.000506,0.019577,0.144553,0.033001,5.175,-21.056252,-26.793751
1782299598968,-0.031107,1.330409,9.000506,0.019577,0.144553,0.033001,5.475,-20.175001,-27.225
1782299598975,-0.069392,1.349552,9.026826,0.029962,0.126227,0.0611,5.475,-20.175001,-27.225
1782299598979,-0.069392,1.349552,9.026826,0.029962,0.126227,0.0611,4.8375,-19.275002,-27.375002
1782299598984,-0.105284,1.339981,9.079468,0.048288,0.101792,0.091033,4.8375,-19.275002,-27.375002
1782299598989,-0.105284,1.339981,9.079468,0.048288,0.101792,0.091033,5.8875,-20.043751,-26.325001
1782299598992,-0.136391,1.387837,9.158432,0.080053,0.073082,0.120965,5.8875,-20.043751,-26.325001
1782299598999,-0.136391,1.387837,9.158432,0.080053,0.073082,0.120965,5.5875,-20.043751,-26.325001
1782299599002,-0.122034,1.40698,9.239788,0.121592,0.03643,0.144789,5.5875,-20.043751,-26.325001
1782299599009,-0.122034,1.40698,9.239788,0.121592,0.03643,0.144789,4.0875,-20.606251,-26.325001
1782299599010,-0.122034,1.40698,9.239788,0.166185,-0.011218,0.158228,4.0875,-20.606251,-26.325001
1782299599011,-0.157926,1.45005,9.321144,0.166185,-0.011218,0.158228,4.0875,-20.606251,-26.325001
1782299599020,-0.157926,1.45005,9.321144,0.197339,-0.078413,0.163115,4.0875,-20.606251,-26.325001
1782299599021,-0.145962,1.514657,9.34268,0.197339,-0.078413,0.163115,5.475,-20.175001,-27.225
1782299599027,-0.078963,1.564906,9.328322,0.201615,-0.138888,0.165558,5.475,-20.175001,-27.225
1782299599029,-0.078963,1.564906,9.328322,0.201615,-0.138888,0.165558,5.75625,-20.475,-26.475
1782299599035,-0.078963,1.564906,9.328322,0.181456,-0.176151,0.163726,5.75625,-20.475,-26.475
1782299599036,-0.026321,1.598405,9.366607,0.181456,-0.176151,0.163726,5.75625,-20.475,-26.475
1782299599039,-0.026321,1.598405,9.366607,0.181456,-0.176151,0.163726,3.31875,-20.00625,-26.325001
1782299599044,-0.026321,1.598405,9.366607,0.157022,-0.181649,0.156395,3.31875,-20.00625,-26.325001
1782299599045,0.021535,1.634298,9.591532,0.157022,-0.181649,0.156395,3.31875,-20.00625,-26.325001
1782299599060,0.117248,1.643869,9.806887,0.139918,-0.152938,0.146621,4.6125,-19.143751,-25.106251
1782299599061,0.117248,1.643869,9.806887,0.129533,-0.113843,0.139902,4.6125,-19.143751,-25.106251
1782299599062,0.234497,1.622334,9.991134,0.129533,-0.113843,0.139902,4.6125,-19.143751,-25.106251
1782299599068,0.234497,1.622334,9.991134,0.129533,-0.113843,0.139902,4.6125,-19.893751,-24.656252
1782299599069,0.234497,1.622334,9.991134,0.127089,-0.088798,0.132572,4.6125,-19.893751,-24.656252
1782299599070,0.291924,1.57687,10.206488,0.127089,-0.088798,0.132572,4.6125,-19.893751,-24.656252
1782299599080,0.311067,1.495514,10.507984,0.142361,-0.07658,0.125852,3.88125,-19.575001,-25.406252
1782299599087,0.320638,1.426122,10.835801,0.173515,-0.064974,0.116689,3.88125,-19.575001,-25.406252
1782299599089,0.320638,1.426122,10.835801,0.173515,-0.064974,0.116689,3.88125,-19.575001,-25.406252
1782299599096,0.299103,1.323231,11.130118,0.21261,-0.04115,0.105083,3.88125,-19.575001,-25.406252
1782299599099,0.299103,1.323231,11.130118,0.21261,-0.04115,0.105083,4.2375,-20.15625,-26.475
1782299599104,0.299103,1.323231,11.130118,0.241321,-0.015494,0.093476,4.2375,-20.15625,-26.475
1782299599105,0.282353,1.182054,11.309579,0.241321,-0.015494,0.093476,4.2375,-20.15625,-26.475
1782299599110,0.282353,1.182054,11.309579,0.241321,-0.015494,0.093476,4.6875,-19.875,-26.925001
1782299599113,0.29671,1.052842,11.422042,0.248651,-0.008774,0.08187,4.6875,-19.875,-26.925001
1782299599119,0.29671,1.052842,11.422042,0.248651,-0.008774,0.08187,4.63125,-20.475,-24.356251
1782299599122,0.287139,1.024128,11.579968,0.241321,-0.022824,0.065376,4.63125,-20.475,-24.356251
1782299599129,0.287139,1.024128,11.579968,0.241321,-0.022824,0.065376,4.05,-20.625,-24.956251
1782299599130,0.244068,1.107877,11.713966,0.242543,-0.031987,0.045218,4.05,-20.625,-24.956251
1782299599140,0.244068,1.107877,11.713966,0.257814,-0.022824,0.028114,4.05,-20.625,-24.956251
1782299599141,0.165105,1.282553,11.548862,0.257814,-0.022824,0.028114,4.78125,-20.625,-24.50625
1782299599147,0.047856,1.48355,11.12294,0.27614,-0.012439,0.014064,4.78125,-20.625,-24.50625
1782299599148,0.047856,1.48355,11.12294,0.27614,-0.012439,0.014064,3.9,-21.206251,-24.356251
1782299599165,-0.050249,1.665405,10.687445,0.279195,-0.01977,0.004901,3.9,-21.206251,-24.356251
1782299599166,-0.11007,1.823331,10.424235,0.244986,-0.0271,0.00429,2.4,-20.737501,-25.106251
1782299599170,-0.11007,1.823331,10.424235,0.244986,-0.0271,0.00429,3.825,-20.587502,-27.393751
1782299599173,-0.148355,1.976472,10.364415,0.172293,-0.030155,0.008566,3.825,-20.587502,-27.393751
1782299599179,-0.148355,1.976472,10.364415,0.172293,-0.030155,0.008566,4.6125,-19.893751,-24.356251
1782299599181,-0.191426,2.115255,10.395521,0.076998,-0.028933,0.014675,4.6125,-19.893751,-24.356251
1782299599189,-0.191426,2.115255,10.395521,0.076998,-0.028933,0.014675,1.8,-20.587502,-25.575001
1782299599190,-0.258425,2.165504,10.534305,-0.029903,-0.050313,0.015896,1.8,-20.587502,-25.575001
1782299599200,-0.299103,2.084148,10.917157,-0.14108,-0.074748,0.015286,4.7625,-22.237501,-26.94375
1782299599207,-0.299103,2.084148,10.917157,-0.252258,-0.088798,0.013453,4.7625,-22.237501,-26.94375
1782299599208,-0.301496,1.785046,11.309579,-0.252258,-0.088798,0.013453,5.175,-21.356251,-26.325001
1782299599216,-0.356531,1.363909,11.75943,-0.371376,-0.093684,0.012231,5.175,-21.356251,-26.325001
1782299599218,-0.356531,1.363909,11.75943,-0.371376,-0.093684,0.012231,3.7125,-20.625,-23.75625
1782299599224,-0.301496,0.899701,12.214066,-0.486219,-0.086965,0.017729,3.7125,-20.625,-23.75625
1782299599230,-0.301496,0.899701,12.214066,-0.486219,-0.086965,0.017729,3.69375,-18.993752,-25.25625
1782299599233,-0.270389,0.399601,12.553847,-0.572962,-0.066196,0.034833,3.69375,-18.993752,-25.25625
1782299599239,-0.270389,0.399601,12.553847,-0.572962,-0.066196,0.034833,2.68125,-20.75625,-24.656252
1782299599241,-0.270389,0.399601,12.553847,-0.598007,-0.044204,0.063544,2.68125,-20.75625,-24.656252
1782299599242,-0.234497,-0.004786,12.891235,-0.598007,-0.044204,0.063544,2.68125,-20.75625,-24.656252
1782299599248,-0.234497,-0.004786,12.891235,-0.598007,-0.044204,0.063544,3.16875,-20.456251,-25.875002
1782299599250,-0.248854,-0.27996,13.101803,-0.522871,-0.025878,0.10325,3.16875,-20.456251,-25.875002
1782299599268,-0.418744,-0.382852,12.558632,-0.083659,-0.008774,0.172889,2.26875,-21.337502,-25.275002
1782299599275,-0.418744,-0.382852,12.558632,0.185122,0.008941,0.183884,2.26875,-21.337502,-25.275002
1782299599276,-0.514457,-0.143569,11.745073,0.185122,0.008941,0.183884,2.26875,-21.337502,-25.275002
1782299599279,-0.514457,-0.143569,11.745073,0.185122,0.008941,0.183884,3.13125,-20.75625,-24.356251
1782299599285,-0.543171,0.227318,10.675481,0.385485,0.024212,0.183884,3.13125,-20.75625,-24.356251
1782299599290,-0.543171,0.227318,10.675481,0.385485,0.024212,0.183884,3.7875,-18.862501,-23.268751
1782299599293,-0.617348,0.583849,9.593925,0.463065,0.006497,0.180219,3.7875,-18.862501,-23.268751
1782299599299,-0.617348,0.583849,9.593925,0.463065,0.006497,0.180219,3.24375,-20.025002,-24.206251
1782299599302,-0.665205,0.909273,8.823436,0.410531,-0.04787,0.177776,3.24375,-20.025002,-24.206251
1782299599309,-0.665205,0.909273,8.823436,0.410531,-0.04787,0.177776,2.15625,-19.725,-23.737501
1782299599310,-0.665205,0.909273,8.823436,0.266367,-0.122395,0.176554,2.15625,-19.725,-23.737501
1782299599311,-0.677169,1.124627,8.600904,0.266367,-0.122395,0.176554,2.15625,-19.725,-23.737501
1782299599321,-0.681954,1.189233,8.703796,0.09227,-0.158436,0.171667,2.53125,-20.00625,-25.556252
1782299599327,-0.681954,1.189233,8.703796,-0.056781,-0.16149,0.168613,2.53125,-20.00625,-25.556252
1782299599328,-0.741775,1.105484,8.840187,-0.056781,-0.16149,0.168613,2.53125,-20.00625,-25.556252
1782299599329,-0.741775,1.105484,8.840187,-0.056781,-0.16149,0.168613,2.71875,-20.737501,-25.875002
1782299599336,-0.741775,1.105484,8.840187,-0.170402,-0.163323,0.173499,2.71875,-20.737501,-25.875002
1782299599337,-0.746561,0.945165,8.967006,-0.170402,-0.163323,0.173499,2.71875,-20.737501,-25.875002
1782299599339,-0.746561,0.945165,8.967006,-0.170402,-0.163323,0.173499,1.9875,-19.575001,-23.2875
1782299599344,-0.746561,0.945165,8.967006,-0.241873,-0.171875,0.187549,1.9875,-19.575001,-23.2875
1782299599345,-0.70349,0.760918,9.19911,-0.241873,-0.171875,0.187549,1.9875,-19.575001,-23.2875
1782299599350,-0.70349,0.760918,9.19911,-0.241873,-0.171875,0.187549,1.63125,-20.4375,-25.106251
1782299599367,-0.490529,0.478565,9.486249,-0.192393,-0.094906,0.221147,2.04375,-18.825001,-25.406252
1782299599369,-0.490529,0.478565,9.486249,-0.192393,-0.094906,0.221147,0.5625,-21.168751,-24.356251
1782299599371,-0.39003,0.430708,9.19911,-0.100763,-0.027711,0.235808,0.5625,-21.168751,-24.356251
1782299599380,-0.311067,0.445065,8.830616,-0.015242,0.013217,0.249247,-0.43125,-19.25625,-23.4375
1782299599388,-0.222533,0.540778,8.509977,0.034849,0.031543,0.262686,-0.43125,-19.25625,-23.4375
1782299599389,-0.222533,0.540778,8.509977,0.034849,0.031543,0.262686,2.475,-19.275002,-24.187502
1782299599397,-0.172283,0.598206,8.261123,0.040347,0.042538,0.271849,2.475,-19.275002,-24.187502
1782299599399,-0.172283,0.598206,8.261123,0.040347,0.042538,0.271849,0.35625,-19.25625,-24.187502
1782299599405,-0.155533,0.607777,8.079269,0.006138,0.040095,0.270627,0.35625,-19.25625,-24.187502
1782299599410,-0.155533,0.607777,8.079269,0.006138,0.040095,0.270627,0.05625,-19.5375,-23.887501
1782299599425,-0.20339,0.672383,7.981163,-0.117257,-0.028322,0.229699,1.3875,-19.275002,-23.4375
1782299599429,-0.20339,0.672383,7.981163,-0.117257,-0.028322,0.229699,-0.20625,-19.81875,-25.106251
1782299599430,-0.205783,0.646062,8.12234,-0.173456,-0.063752,0.197934,-0.20625,-19.81875,-25.106251
1782299599439,-0.205783,0.646062,8.12234,-0.218049,-0.06925,0.16678,-0.20625,-19.81875,-25.106251
1782299599440,-0.145962,0.641276,8.380765,-0.218049,-0.06925,0.16678,1.575,-19.856251,-23.887501
1782299599448,-0.09332,0.655633,8.60569,-0.243095,-0.027711,0.144789,1.4625,-20.2875,-24.956251
1782299599456,-0.09332,0.655633,8.60569,-0.229656,0.046814,0.13135,1.4625,-20.2875,-24.956251
1782299599457,-0.057428,0.684347,8.770794,-0.229656,0.046814,0.13135,1.4625,-20.2875,-24.956251
1782299599459,-0.057428,0.684347,8.770794,-0.229656,0.046814,0.13135,-0.84375,-19.237501,-24.487501
1782299599474,-0.007178,0.808774,8.624833,-0.06289,0.170209,0.106304,0.65625,-18.65625,-24.937502
1782299599479,-0.007178,0.808774,8.624833,-0.06289,0.170209,0.106304,1.2375,-18.375,-24.337502
1782299599482,0.023928,0.918844,8.366408,0.048288,0.180594,0.100196,1.2375,-18.375,-24.337502
1782299599489,0.023928,0.918844,8.366408,0.048288,0.180594,0.100196,0.3375,-18.956251,-23.737501
1782299599490,0.09332,1.09352,8.10559,0.124646,0.176318,0.098363,0.3375,-18.956251,-23.737501
1782299599499,0.078963,1.246661,7.804094,0.150302,0.144553,0.09592,1.66875,-19.275002,-22.668751
1782299599507,0.078963,1.246661,7.804094,0.117926,0.090797,0.091644,1.66875,-19.275002,-22.668751
1782299599508,0.007178,1.368695,7.691631,0.117926,0.090797,0.091644,1.66875,-19.275002,-22.668751
1782299599509,0.007178,1.368695,7.691631,0.117926,0.090797,0.091644,-0.3,-17.775002,-23.868752
1782299599516,-0.045464,1.438086,7.71556,0.047066,0.016882,0.084924,-0.3,-17.775002,-23.868752
1782299599518,-0.045464,1.438086,7.71556,0.047066,0.016882,0.084924,1.0875,-18.675001,-24.187502
1782299599525,-0.07657,1.402194,7.873486,-0.031125,-0.077191,0.066598,1.0875,-18.675001,-24.187502
1782299599530,-0.07657,1.402194,7.873486,-0.031125,-0.077191,0.066598,0.50625,-19.106251,-24.637501
1782299599534,-0.078963,1.342373,8.230016,-0.104428,-0.149273,0.03972,0.50625,-19.106251,-24.637501
1782299599539,-0.078963,1.342373,8.230016,-0.104428,-0.149273,0.03972,0.4125,-18.375,-22.518751
1782299599542,-0.088534,1.265803,8.62244,-0.150243,-0.185314,0.008566,0.4125,-18.375,-22.518751
1782299599549,-0.088534,1.265803,8.62244,-0.150243,-0.185314,0.008566,0.4125,-18.375,-22.518751
1782299599550,-0.088534,1.265803,8.62244,-0.153908,-0.185925,-0.021366,0.4125,-18.375,-22.518751
1782299599551,-0.074178,1.17009,8.933507,-0.153908,-0.185925,-0.021366,0.4125,-18.375,-22.518751
1782299599560,-0.074178,1.17009,8.933507,-0.118478,-0.146219,-0.048244,-0.5625,-17.75625,-25.387501
1782299599561,-0.035892,1.095913,9.134504,-0.118478,-0.146219,-0.048244,-0.5625,-17.75625,-25.387501
1782299599575,0.009571,1.069592,9.172789,-0.059224,-0.093684,-0.074512,1.0875,-20.00625,-22.6875
1782299599577,0.081356,1.069592,9.206288,0.004916,-0.042983,-0.096503,1.0875,-20.00625,-22.6875
1782299599579,0.081356,1.069592,9.206288,0.004916,-0.042983,-0.096503,0.6,-18.225,-23.71875
1782299599585,0.143569,1.09352,9.246966,0.062338,-0.016715,-0.114218,0.6,-18.225,-23.71875
1782299599591,0.143569,1.09352,9.246966,0.062338,-0.016715,-0.114218,-0.58125,-18.806252,-23.887501
1782299599593,0.205783,1.141376,9.285251,0.118537,-0.011829,-0.131933,-0.58125,-18.806252,-23.887501
1782299599599,0.205783,1.141376,9.285251,0.118537,-0.011829,-0.131933,-0.1875,-17.19375,-23.71875
1782299599602,0.212961,1.287339,9.292429,0.169239,-0.001444,-0.148426,-0.1875,-17.19375,-23.71875
1782299599609,0.212961,1.287339,9.292429,0.169239,-0.001444,-0.148426,-2.08125,-18.7875,-23.887501
1782299599610,0.181855,1.447658,9.213467,0.217497,0.030932,-0.161865,-2.08125,-18.7875,-23.887501
1782299599620,0.181855,1.447658,9.213467,0.256593,0.068195,-0.17225,-2.08125,-18.7875,-23.887501
1782299599621,0.181855,1.605584,8.955041,0.256593,0.068195,-0.17225,0.375,-16.3125,-22.800001
1782299599629,0.181855,1.605584,8.955041,0.263312,0.087132,-0.181413,-2.1,-19.087502,-23.2875
1782299599630,0.157926,1.674976,8.74926,0.263312,0.087132,-0.181413,-2.1,-19.087502,-23.2875
1782299599637,0.138784,1.68694,8.77558,0.224217,0.087742,-0.185078,-2.1,-19.087502,-23.2875
1782299599639,0.138784,1.68694,8.77558,0.224217,0.087742,-0.185078,-1.66875,-18.206251,-23.71875
1782299599645,0.138784,1.68694,8.77558,0.1558,0.06453,-0.185078,-1.66875,-18.206251,-23.71875
1782299599646,0.143569,1.658226,9.062719,0.1558,0.06453,-0.185078,-1.66875,-18.206251,-23.71875
1782299599650,0.143569,1.658226,9.062719,0.1558,0.06453,-0.185078,-1.21875,-17.456251,-24.168751
1782299599654,0.119641,1.557728,9.620246,0.086161,0.038262,-0.188132,-1.21875,-17.456251,-24.168751
1782299599659,0.119641,1.557728,9.620246,0.086161,0.038262,-0.188132,-0.88125,-17.90625,-24.937502
1782299599663,0.117248,1.4668,10.201703,0.038514,0.033986,-0.191187,-0.88125,-17.90625,-24.937502
1782299599677,0.095713,1.404587,10.548662,0.033016,0.044982,-0.194852,0.75,-18.375,-23.56875
1782299599680,0.0335,1.351945,10.764016,0.069057,0.047425,-0.197906,-2.00625,-17.475,-22.96875
1782299599689,-0.071785,1.320838,10.888443,0.136252,0.035819,-0.200961,-1.0125,-18.7875,-24.337502
1782299599696,-0.071785,1.320838,10.888443,0.208334,0.027267,-0.201571,-1.0125,-18.7875,-24.337502
1782299599697,-0.136391,1.294517,10.924335,0.208334,0.027267,-0.201571,-1.0125,-18.7875,-24.337502
1782299599698,-0.136391,1.294517,10.924335,0.208334,0.027267,-0.201571,0.3,-18.675001,-22.96875
1782299599705,-0.162712,1.20359,10.991334,0.257204,0.02971,-0.200961,0.3,-18.675001,-22.96875
1782299599710,-0.162712,1.20359,10.991334,0.257204,0.02971,-0.200961,-0.45,-18.206251,-23.71875
1782299599713,-0.16989,1.079163,11.118153,0.258425,0.039484,-0.201571,-0.45,-18.206251,-23.71875
1782299599719,-0.16989,1.079163,11.118153,0.258425,0.039484,-0.201571,-0.99375,-16.143751,-22.950001
1782299599722,-0.16989,1.079163,11.118153,0.226049,0.043149,-0.20035,-0.99375,-16.143751,-22.950001
1782299599723,-0.196211,1.007378,11.338294,0.226049,0.043149,-0.20035,-0.99375,-16.143751,-22.950001
1782299599729,-0.196211,1.007378,11.338294,0.226049,0.043149,-0.20035,-0.1875,-17.925001,-22.668751
1782299599731,-0.232104,1.007378,11.553648,0.183289,0.041317,-0.196074,-0.1875,-17.925001,-22.668751
1782299599740,-0.232104,1.007378,11.553648,0.163741,0.044371,-0.186911,-0.1875,-17.925001,-22.668751
1782299599741,-0.196211,1.067199,11.675682,0.163741,0.044371,-0.186911,-0.09375,-16.612501,-22.050001
1782299599749,-0.184247,1.234697,11.603897,0.185122,0.073693,-0.178969,-0.375,-17.34375,-22.5
1782299599756,-0.244068,1.452443,11.311972,0.185122,0.073693,-0.178969,-0.375,-17.34375,-22.5
1782299599757,-0.244068,1.452443,11.311972,0.232769,0.117675,-0.169196,-0.375,-17.34375,-22.5
1782299599758,-0.244068,1.452443,11.311972,0.232769,0.117675,-0.169196,-0.01875,-17.775002,-23.268751
1782299599765,-0.337388,1.708475,10.845372,0.265756,0.139666,-0.157589,-0.01875,-17.775002,-23.268751
1782299599770,-0.337388,1.708475,10.845372,0.265756,0.139666,-0.157589,-0.54375,-17.19375,-21.6
1782299599780,-0.413958,1.931008,10.481662,0.244375,0.122562,-0.147815,0.54375,-16.462502,-23.400002
1782299599782,-0.437887,2.098505,10.278273,0.153357,0.078579,-0.139874,0.54375,-16.462502,-23.400002
1782299599788,-0.437887,2.098505,10.278273,0.153357,0.078579,-0.139874,-0.50625,-17.493752,-22.96875
1782299599790,-0.4666,2.072184,10.38595,-0.012799,0.012606,-0.134987,-0.50625,-17.493752,-22.96875
1782299599799,-0.4666,2.072184,10.38595,-0.224769,-0.034431,-0.138652,-0.50625,-17.493752,-22.96875
1782299599800,-0.437887,1.861616,10.677874,-0.224769,-0.034431,-0.138652,-1.5,-15.8625,-21.731251
1782299599809,-0.437887,1.861616,10.677874,-0.436128,-0.061309,-0.155146,-1.5,-15.8625,-21.731251
1782299599810,-0.378066,1.454836,11.118153,-0.436128,-0.061309,-0.155146,1.3125,-17.212502,-22.950001
1782299599817,-0.287139,0.937986,11.551255,-0.612057,-0.066806,-0.175915,1.3125,-17.212502,-22.950001
1782299599819,-0.287139,0.937986,11.551255,-0.612057,-0.066806,-0.175915,-1.7625,-16.743752,-21.900002
1782299599825,-0.287139,0.937986,11.551255,-0.737895,-0.082689,-0.191187,-1.7625,-16.743752,-21.900002
1782299599826,-0.143569,0.416351,12.092032,-0.737895,-0.082689,-0.191187,-1.7625,-16.743752,-21.900002
1782299599830,-0.143569,0.416351,12.092032,-0.737895,-0.082689,-0.191187,0.1875,-17.212502,-21.13125
1782299599835,-0.028714,-0.07657,12.951056,-0.785543,-0.082689,-0.190576,0.1875,-17.212502,-21.13125
1782299599839,-0.028714,-0.07657,12.951056,-0.785543,-0.082689,-0.190576,0.65625,-15.281251,-23.550001
1782299599842,-0.028714,-0.07657,12.951056,-0.710406,-0.021602,-0.174693,0.65625,-15.281251,-23.550001
1782299599843,0.031107,-0.442672,13.628225,-0.710406,-0.021602,-0.174693,0.65625,-15.281251,-23.550001
1782299599849,0.031107,-0.442672,13.628225,-0.710406,-0.021602,-0.174693,-0.2625,-16.1625,-22.331251
1782299599851,0.004786,-0.655633,13.668903,-0.517373,0.088964,-0.153313,-0.2625,-16.1625,-22.331251
1782299599860,0.004786,-0.655633,13.668903,-0.258366,0.217246,-0.133155,-0.4125,-15.58125,-22.78125
1782299599861,-0.07657,-0.660419,12.953449,-0.258366,0.217246,-0.133155,-0.4125,-15.58125,-22.78125
1782299599869,-0.07657,-0.660419,12.953449,-0.00669,0.313762,-0.112385,-0.4125,-15.58125,-22.78125
1782299599871,-0.124427,-0.418744,11.941285,-0.00669,0.313762,-0.112385,-0.31875,-13.950001,-22.3125
1782299599877,-0.07657,-0.074178,10.866908,0.19123,0.345527,-0.095892,-0.31875,-13.950001,-22.3125
1782299599898,-0.071785,0.284746,9.883457,0.297521,0.300323,-0.086729,0.20625,-16.1625,-22.950001
1782299599899,-0.071785,0.284746,9.883457,0.297521,0.300323,-0.086729,0.13125,-14.700001,-21.5625
1782299599902,-0.040678,0.875773,8.840187,0.249873,0.144553,-0.086729,0.13125,-14.700001,-21.5625
1782299599909,-0.040678,0.875773,8.840187,0.249873,0.144553,-0.086729,-0.61875,-15.731251,-21.13125
1782299599910,-0.040678,0.875773,8.840187,0.152135,0.103014,-0.09467,-0.61875,-15.731251,-21.13125
1782299599911,-0.066999,0.997807,8.557833,0.152135,0.103014,-0.09467,-0.61875,-15.731251,-21.13125
1782299599920,-0.066999,0.997807,8.557833,0.025075,0.082245,-0.109331,-0.61875,-15.731251,-21.13125
1782299599921,-0.09332,0.969093,8.306587,0.025075,0.082245,-0.109331,0.31875,-15.281251,-22.481251
1782299599929,-0.07657,0.866202,8.301801,-0.108094,0.065751,-0.121548,-1.48125,-13.668751,-19.743752
1782299599937,-0.045464,0.717847,8.675082,-0.214995,0.054145,-0.129489,-1.48125,-13.668751,-19.743752
1782299599939,-0.045464,0.717847,8.675082,-0.214995,0.054145,-0.129489,-0.45,-15.58125,-21.431252
1782299599946,0.021535,0.567099,9.208681,-0.257145,0.066362,-0.134376,-0.45,-15.58125,-21.431252
1782299599949,0.021535,0.567099,9.208681,-0.257145,0.066362,-0.134376,0.24375,-13.81875,-21.712502
1782299599954,0.074178,0.401994,9.543676,-0.227212,0.112788,-0.139874,0.24375,-13.81875,-21.712502
1782299599960,0.074178,0.401994,9.543676,-0.227212,0.112788,-0.139874,0.13125,-13.968751,-22.3125
1782299599964,0.181855,0.256032,9.555641,-0.153908,0.162268,-0.140485,0.13125,-13.968751,-22.3125
1782299599969,0.181855,0.256032,9.555641,-0.153908,0.162268,-0.140485,-1.2375,-14.1,-22.012501
1782299599971,0.181855,0.256032,9.555641,-0.076329,0.172042,-0.13682,-1.2375,-14.1,-22.012501
1782299599972,0.246461,0.157926,9.505391,-0.076329,0.172042,-0.13682,-1.2375,-14.1,-22.012501
1782299599993,0.208176,0.138784,9.455142,0.036681,0.092629,-0.123992,-0.6,-14.400001,-22.63125
1782299599998,0.208176,0.160319,9.294822,0.052564,0.046204,-0.117883,-0.6,-14.400001,-22.63125
1782299599999,0.208176,0.160319,9.294822,0.052564,0.046204,-0.117883,0.9,-13.968751,-22.931252
1782299600005,0.191426,0.208176,9.067504,0.03546,0.001,-0.111164,0.9,-13.968751,-22.931252
1782299600009,0.191426,0.208176,9.067504,0.03546,0.001,-0.111164,0.54375,-13.81875,-21.4125
1782299600014,0.20339,0.303888,8.88565,-0.001803,-0.04115,-0.103222,0.54375,-13.81875,-21.4125
1782299600019,0.20339,0.303888,8.88565,-0.001803,-0.04115,-0.103222,-0.225,-13.087501,-21.69375
1782299600024,0.191426,0.387637,8.789938,-0.043342,-0.064974,-0.094059,-0.225,-13.087501,-21.69375
1782299600029,0.191426,0.387637,8.789938,-0.043342,-0.064974,-0.094059,-0.225,-13.087501,-21.69375
1782299600031,0.150748,0.468993,8.653546,-0.073885,-0.075969,-0.084285,-0.225,-13.087501,-21.69375
1782299600039,0.150748,0.468993,8.653546,-0.090378,-0.074748,-0.070846,-0.225,-13.087501,-21.69375
1782299600040,0.100499,0.562313,8.553048,-0.090378,-0.074748,-0.070846,-0.4875,-14.1,-22.012501
1782299600049,0.057428,0.605384,8.414264,-0.095265,-0.075969,-0.056186,0.39375,-12.4875,-22.612501
1782299600057,0.062213,0.624527,8.29223,-0.094655,-0.084521,-0.043358,0.39375,-12.4875,-22.612501
1782299600058,0.062213,0.624527,8.29223,-0.094655,-0.084521,-0.043358,-1.25625,-12.31875,-23.212502
1782299600065,0.047856,0.648455,8.265909,-0.094655,-0.088798,-0.032973,-1.25625,-12.31875,-23.212502
1782299600070,0.047856,0.648455,8.265909,-0.094655,-0.088798,-0.032973,1.0125,-13.087501,-22.462502
1782299600074,0.014357,0.684347,8.306587,-0.089768,-0.086965,-0.025642,1.0125,-13.087501,-22.462502
1782299600082,-0.081356,0.713061,8.38555,-0.081216,-0.059476,-0.020145,-0.20625,-12.76875,-22.762501
1782299600089,-0.081356,0.713061,8.38555,-0.081216,-0.059476,-0.020145,-0.4875,-12.76875,-23.212502
1782299600091,-0.124427,0.784846,8.450157,-0.07022,-0.025878,-0.015869,-0.4875,-12.76875,-23.212502
1782299600098,-0.124427,0.784846,8.450157,-0.07022,-0.025878,-0.015869,-0.61875,-13.650001,-22.931252
1782299600099,-0.16989,0.823131,8.471692,-0.055559,0.011995,-0.019534,-0.61875,-13.650001,-22.931252
1782299600109,-0.229711,0.882952,8.483655,-0.033568,0.033375,-0.024421,-1.85625,-12.168751,-23.362501
1782299600116,-0.229711,0.882952,8.483655,0.002473,0.055367,-0.029918,-1.85625,-12.168751,-23.362501
1782299600117,-0.275175,0.921237,8.505191,0.002473,0.055367,-0.029918,-1.85625,-12.168751,-23.362501
1782299600118,-0.275175,0.921237,8.505191,0.002473,0.055367,-0.029918,-0.525,-12.0375,-22.44375
1782299600125,-0.253639,0.981057,8.519548,0.041568,0.083466,-0.034195,-0.525,-12.0375,-22.44375
1782299600128,-0.253639,0.981057,8.519548,0.041568,0.083466,-0.034195,-0.24375,-12.0375,-21.993752
1782299600134,-0.232104,1.064806,8.452549,0.076388,0.112177,-0.039692,-0.24375,-12.0375,-21.993752
1782299600139,-0.232104,1.064806,8.452549,0.076388,0.112177,-0.039692,-0.20625,-12.76875,-22.762501
1782299600142,-0.222533,1.15334,8.373586,0.101433,0.131114,-0.038471,-0.20625,-12.76875,-22.762501
1782299600148,-0.222533,1.15334,8.373586,0.101433,0.131114,-0.038471,-1.3125,-12.0375,-21.993752
1782299600151,-0.253639,1.22034,8.287445,0.105098,0.144553,-0.034195,-1.3125,-12.0375,-21.993752
1782299600158,-0.253639,1.22034,8.287445,0.105098,0.144553,-0.034195,-0.24375,-12.337501,-21.69375
1782299600159,-0.251246,1.265803,8.320943,0.090437,0.141498,-0.026864,-0.24375,-12.337501,-21.69375
1782299600169,-0.244068,1.292124,8.41905,0.069057,0.111566,-0.023199,-0.24375,-12.337501,-21.69375
1782299600170,-0.244068,1.292124,8.41905,0.069057,0.111566,-0.023199,-0.35625,-11.887501,-23.362501
1782299600177,-0.208176,1.354338,8.526726,0.052564,0.070027,-0.018923,-0.35625,-11.887501,-23.362501
1782299600182,-0.208176,1.354338,8.526726,0.052564,0.070027,-0.018923,0.1875,-11.025001,-22.44375
1782299600185,-0.193819,1.361516,8.610475,0.042179,0.039484,-0.010982,0.1875,-11.025001,-22.44375
1782299600188,-0.193819,1.361516,8.610475,0.042179,0.039484,-0.010982,-0.35625,-13.218751,-22.3125
1782299600194,-0.179462,1.337588,8.706189,0.039736,0.010773,0.000625,-0.35625,-13.218751,-22.3125
1782299600199,-0.179462,1.337588,8.706189,0.039736,0.010773,0.000625,-0.1875,-13.368751,-22.462502
1782299600202,-0.16989,1.301695,8.876079,0.042179,-0.002055,0.011009,-0.1875,-13.368751,-22.462502
1782299600209,-0.16989,1.301695,8.876079,0.042179,-0.002055,0.011009,0.95625,-12.056251,-21.69375
1782299600211,-0.193819,1.311267,9.074683,0.050731,0.002832,0.022005,0.95625,-12.056251,-21.69375
1782299600219,-0.193819,1.311267,9.074683,0.050731,0.002832,0.022005,0.88125,-12.937501,-23.362501
1782299600220,-0.227318,1.368695,9.158432,0.068446,0.004054,0.035444,0.88125,-12.937501,-23.362501
1782299600229,-0.239282,1.430908,9.177575,0.097768,-0.003276,0.049494,0.88125,-12.937501,-23.362501
1782299600230,-0.239282,1.430908,9.177575,0.097768,-0.003276,0.049494,-1.95,-11.4375,-21.543751
1782299600237,-0.205783,1.471586,9.194324,0.135641,-0.01977,0.0611,-1.95,-11.4375,-21.543751
1782299600238,-0.205783,1.471586,9.194324,0.135641,-0.01977,0.0611,-1.44375,-11.137501,-23.362501
1782299600245,-0.133998,1.531407,9.249359,0.174126,-0.025878,0.070263,-1.44375,-11.137501,-23.362501
1782299600248,-0.133998,1.531407,9.249359,0.174126,-0.025878,0.070263,-0.4125,-12.937501,-20.793751
1782299600254,-0.014357,1.574477,9.352251,0.199171,-0.029544,0.080037,-0.4125,-12.937501,-20.793751
1782299600259,-0.014357,1.574477,9.352251,0.199171,-0.029544,0.080037,0.45,-10.293751,-21.675001
1782299600262,0.055035,1.603191,9.514963,0.207724,-0.028933,0.092254,0.45,-10.293751,-21.675001
1782299600268,0.055035,1.603191,9.514963,0.207724,-0.028933,0.092254,0.1125,-11.4375,-24.4125
1782299600271,0.066999,1.624727,9.782959,0.210167,-0.028933,0.102639,0.1125,-11.4375,-24.4125
1782299600278,0.066999,1.624727,9.782959,0.210167,-0.028933,0.102639,-0.46875,-10.425,-21.075001
1782299600279,0.081356,1.603191,10.05574,0.209556,-0.027711,0.115467,-0.46875,-10.425,-21.075001
1782299600291,0.12682,1.531407,10.326129,0.205891,-0.012439,0.130128,0.20625,-11.606251,-22.44375
1782299600297,0.177069,1.426122,10.613268,0.198561,0.008941,0.147232,0.20625,-11.606251,-22.44375
1782299600298,0.177069,1.426122,10.613268,0.198561,0.008941,0.147232,0.20625,-10.575001,-23.19375
1782299600305,0.162712,1.306481,10.924335,0.194285,0.026656,0.163726,0.20625,-10.575001,-23.19375
1782299600308,0.162712,1.306481,10.924335,0.194285,0.026656,0.163726,-1.33125,-11.587501,-21.393751
1782299600314,0.052642,1.201197,11.295223,0.206502,0.019326,0.177165,-1.33125,-11.587501,-21.393751
1782299600319,0.052642,1.201197,11.295223,0.206502,0.019326,0.177165,-0.61875,-13.950001,-22.931252
1782299600322,-0.059821,1.112663,11.635004,0.231547,-0.008163,0.191215,-0.61875,-13.950001,-22.931252
1782299600328,-0.059821,1.112663,11.635004,0.231547,-0.008163,0.191215,-1.18125,-11.45625,-21.543751
1782299600331,-0.177069,1.007378,11.800108,0.252928,-0.046648,0.207708,-1.18125,-11.45625,-21.543751
1782299600338,-0.177069,1.007378,11.800108,0.252928,-0.046648,0.207708,-1.55625,-12.31875,-23.512501
1782299600339,-0.33021,0.964308,11.797715,0.266367,-0.091241,0.226034,-1.55625,-12.31875,-23.512501
1782299600350,-0.461815,1.009771,11.670895,0.279195,-0.129115,0.243749,-0.8625,-11.587501,-21.993752
1782299600357,-0.526421,1.086342,11.44597,0.294466,-0.149273,0.260242,-0.8625,-11.587501,-21.993752
1782299600358,-0.526421,1.086342,11.44597,0.294466,-0.149273,0.260242,-2.3625,-10.9875,-23.19375
1782299600365,-0.526421,1.086342,11.44597,0.303018,-0.148051,0.277346,-2.3625,-10.9875,-23.19375
1782299600366,-0.555135,1.167697,11.204295,0.303018,-0.148051,0.277346,-2.3625,-10.9875,-23.19375
1782299600368,-0.555135,1.167697,11.204295,0.303018,-0.148051,0.277346,-0.73125,-12.187501,-21.09375
1782299600374,-0.624527,1.253839,10.981762,0.287747,-0.134002,0.295062,-0.73125,-12.187501,-21.09375
1782299600379,-0.624527,1.253839,10.981762,0.287747,-0.134002,0.295062,-0.2625,-11.00625,-22.44375
1782299600383,-0.708275,1.418944,10.823836,0.242543,-0.121784,0.306057,-0.2625,-11.00625,-22.44375
1782299600390,-0.708275,1.418944,10.823836,0.242543,-0.121784,0.306057,-2.94375,-11.868751,-22.59375
1782299600391,-0.847059,1.612762,10.677874,0.181456,-0.1114,0.309722,-2.94375,-11.868751,-22.59375
1782299600398,-0.847059,1.612762,10.677874,0.181456,-0.1114,0.309722,-2.1,-11.2875,-21.69375
1782299600400,-0.918844,1.765903,10.510376,0.108763,-0.099793,0.309111,-2.1,-11.2875,-21.69375
1782299600409,-0.897308,1.785046,10.371593,0.020188,-0.09063,0.306057,-2.775,-12.3,-22.762501
1782299600417,-0.760918,1.603191,10.405093,-0.0916,-0.088187,0.303003,-2.775,-12.3,-22.762501
1782299600418,-0.760918,1.603191,10.405093,-0.0916,-0.088187,0.303003,-0.7125,-10.40625,-23.34375
1782299600426,-0.634098,1.287339,10.694623,-0.234543,-0.100404,0.295672,-0.7125,-10.40625,-23.34375
1782299600428,-0.634098,1.287339,10.694623,-0.234543,-0.100404,0.295672,-2.08125,-9.50625,-23.493752
1782299600434,-0.528814,0.911665,11.300008,-0.395811,-0.123617,0.276736,-2.08125,-9.50625,-23.493752
1782299600439,-0.528814,0.911665,11.300008,-0.395811,-0.123617,0.276736,-2.34375,-12.31875,-21.993752
1782299600443,-0.394816,0.461815,11.993927,-0.558301,-0.177373,0.250468,-2.34375,-12.31875,-21.993752
1782299600448,-0.394816,0.461815,11.993927,-0.558301,-0.177373,0.250468,-3.7875,-11.118751,-21.075001
1782299600451,-0.315853,0.052642,12.596918,-0.694524,-0.240903,0.22359,-3.7875,-11.118751,-21.075001
1782299600458,-0.315853,0.052642,12.596918,-0.694524,-0.240903,0.22359,0.01875,-10.425,-22.59375
1782299600460,-0.277567,-0.251246,13.037198,-0.763551,-0.297713,0.20221,0.01875,-10.425,-22.59375
1782299600470,-0.227318,-0.480957,13.046769,-0.729954,-0.31665,0.190604,-1.6125,-10.5375,-23.19375
1782299600477,-0.210568,-0.531207,12.489241,-0.590066,-0.31665,0.189993,-1.6125,-10.5375,-23.19375
1782299600478,-0.210568,-0.531207,12.489241,-0.590066,-0.31665,0.189993,-4.10625,-8.606251,-22.875
1782299600486,-0.210568,-0.531207,12.489241,-0.386037,-0.287939,0.204043,-4.10625,-8.606251,-22.875
1782299600500,-0.153141,-0.131605,10.697016,-0.166126,-0.23174,0.224201,-2.26875,-9.65625,-22.575001
1782299600503,-0.210568,0.272782,9.857136,0.02874,-0.145608,0.248636,-2.26875,-9.65625,-22.575001
1782299600508,-0.210568,0.272782,9.857136,0.02874,-0.145608,0.248636,-3.7875,-10.387501,-21.825001
1782299600512,-0.323031,0.689133,9.057933,0.168628,-0.04848,0.267573,-3.7875,-10.387501,-21.825001
1782299600519,-0.323031,0.689133,9.057933,0.168628,-0.04848,0.267573,-4.03125,-9.31875,-24.393751
1782299600520,-0.413958,1.052842,8.416657,0.229104,0.016271,0.276736,-4.03125,-9.31875,-24.393751
1782299600530,-0.468993,1.316052,8.000306,0.197339,0.046204,0.280401,-3.13125,-10.2375,-23.19375
1782299600538,-0.495314,1.440479,7.799308,0.087383,0.04376,0.279179,-4.03125,-9.31875,-24.393751
1782299600546,-0.509671,1.392623,7.686846,-0.068387,-0.010607,0.276125,-4.03125,-9.31875,-24.393751
1782299600549,-0.509671,1.392623,7.686846,-0.068387,-0.010607,0.276125,-4.51875,-10.668751,-22.293751
1782299600555,-0.485743,1.217947,7.954842,-0.244927,-0.09796,0.268794,-4.51875,-10.668751,-22.293751
1782299600559,-0.485743,1.217947,7.954842,-0.244927,-0.09796,0.268794,-2.23125,-10.387501,-22.893751
1782299600563,-0.502493,0.961915,8.340086,-0.395811,-0.174319,0.25841,-2.23125,-10.387501,-22.893751
1782299600568,-0.502493,0.961915,8.340086,-0.395811,-0.174319,0.25841,-3.9,-9.0375,-24.243752
1782299600572,-0.492921,0.681954,8.866507,-0.498436,-0.228686,0.252912,-3.9,-9.0375,-24.243752
1782299600579,-0.492921,0.681954,8.866507,-0.498436,-0.228686,0.252912,-4.03125,-9.31875,-24.393751
1782299600581,-0.401994,0.40678,9.407285,-0.544862,-0.221966,0.255355,-4.03125,-9.31875,-24.393751
1782299600590,-0.401994,0.40678,9.407285,-0.544862,-0.221966,0.255355,-5.15625,-9.618751,-22.275002
1782299600591,-0.294317,0.11007,9.756637,-0.525925,-0.184703,0.259021,-5.15625,-9.618751,-22.275002
1782299600610,-0.119641,-0.323031,9.943278,-0.408639,-0.099793,0.284677,-4.63125,-9.01875,-24.993752
1782299600614,-0.119641,-0.323031,9.943278,-0.330448,-0.074748,0.306668,-4.63125,-9.01875,-24.993752
1782299600615,-0.107677,-0.404387,10.043776,-0.330448,-0.074748,0.306668,-4.63125,-9.01875,-24.993752
1782299600621,-0.107677,-0.404387,10.043776,-0.330448,-0.074748,0.306668,-4.8,-8.587501,-24.393751
1782299600623,-0.055035,-0.378066,10.213666,-0.226601,-0.0271,0.329881,-4.8,-8.587501,-24.393751
1782299600629,-0.055035,-0.378066,10.213666,-0.226601,-0.0271,0.329881,-4.8375,-7.8375,-24.393751
1782299600632,-0.066999,-0.241675,10.254344,-0.101374,0.051701,0.349429,-4.8375,-7.8375,-24.393751
1782299600639,-0.066999,-0.241675,10.254344,-0.101374,0.051701,0.349429,-5.1375,-7.8375,-24.393751
1782299600640,-0.066999,-0.241675,10.254344,0.022021,0.125616,0.365922,-5.1375,-7.8375,-24.393751
1782299600641,-0.117248,-0.052642,9.9361,0.022021,0.125616,0.365922,-5.1375,-7.8375,-24.393751
1782299600650,-0.260818,0.167498,9.287644,0.111818,0.153716,0.376917,-5.7,-8.71875,-24.543751
1782299600658,-0.289532,0.375673,8.68226,0.154578,0.12134,0.381193,-3.28125,-9.337501,-24.093752
1782299600666,-0.227318,0.57667,8.194125,0.1558,0.059643,0.375085,-3.28125,-9.337501,-24.093752
1782299600669,-0.227318,0.57667,8.194125,0.1558,0.059643,0.375085,-5.475,-7.70625,-23.175001
1782299600675,-0.153141,0.760918,7.88545,0.136863,-0.00572,0.357981,-5.475,-7.70625,-23.175001
1782299600680,-0.153141,0.760918,7.88545,0.136863,-0.00572,0.357981,-4.51875,-8.587501,-24.093752
1782299600683,-0.124427,0.892523,7.753845,0.10632,-0.04787,0.328659,-4.51875,-8.587501,-24.093752
1782299600689,-0.124427,0.892523,7.753845,0.10632,-0.04787,0.328659,-4.95,-8.418751,-24.993752
1782299600691,-0.100499,0.954736,7.662918,0.067835,-0.075359,0.292007,-4.95,-8.418751,-24.993752
1782299600702,-0.100499,0.954736,7.662918,0.067835,-0.075359,0.292007,-4.85625,-7.55625,-23.625
1782299600703,-0.047856,0.993021,7.617454,0.022021,-0.103458,0.252912,-4.85625,-7.55625,-23.625
1782299600710,-0.011964,1.031307,7.749059,-0.025627,-0.130947,0.216871,-4.10625,-7.85625,-23.625
1782299600718,0.031107,1.031307,8.029019,-0.0635,-0.149273,0.184495,-4.25625,-8.00625,-23.475
1782299600726,0.086142,0.990629,8.311372,-0.086713,-0.148662,0.158839,-4.25625,-8.00625,-23.475
1782299600729,0.086142,0.990629,8.311372,-0.086713,-0.148662,0.158839,-7.25625,-7.66875,-24.225
1782299600734,0.141177,0.945165,8.507584,-0.094044,-0.142554,0.132572,-7.25625,-7.66875,-24.225
1782299600739,0.141177,0.945165,8.507584,-0.094044,-0.142554,0.132572,-3.9375,-7.25625,-24.525002
1782299600743,0.20339,0.92363,8.679867,-0.089768,-0.140721,0.107526,-3.9375,-7.25625,-24.525002
1782299600748,0.20339,0.92363,8.679867,-0.089768,-0.140721,0.107526,-6.525,-7.9875,-23.475
1782299600751,0.22014,0.937986,8.861722,-0.073885,-0.141943,0.085535,-6.525,-7.9875,-23.475
1782299600758,0.22014,0.937986,8.861722,-0.073885,-0.141943,0.085535,-3.7875,-6.075,-25.425001
1782299600760,0.217747,0.971486,8.993327,-0.040288,-0.134002,0.062933,-3.7875,-6.075,-25.425001
1782299600770,0.239282,0.990629,8.971792,0.002473,-0.123617,0.037277,-4.51875,-7.55625,-24.843752
1782299600777,0.308674,1.002593,8.844972,0.038514,-0.114454,0.007344,-4.51875,-7.55625,-24.843752
1782299600779,0.308674,1.002593,8.844972,0.038514,-0.114454,0.007344,-5.04375,-8.56875,-26.212502
1782299600786,0.411565,0.98345,8.739687,0.058673,-0.101626,-0.026253,-5.04375,-8.56875,-26.212502
1782299600788,0.411565,0.98345,8.739687,0.058673,-0.101626,-0.026253,-4.5,-7.8375,-25.143751
1782299600794,0.485743,0.964308,8.725331,0.060505,-0.080856,-0.060462,-4.5,-7.8375,-25.143751
1782299600799,0.485743,0.964308,8.725331,0.060505,-0.080856,-0.060462,-4.89375,-8.418751,-26.362501
1782299600804,0.519243,0.92363,8.916757,0.04951,-0.061309,-0.091616,-4.89375,-8.418751,-26.362501
1782299600808,0.519243,0.92363,8.916757,0.04951,-0.061309,-0.091616,-8.137501,-4.725,-23.137501
1782299600812,0.519243,0.921237,9.160824,0.038514,-0.038096,-0.118494,-8.137501,-4.725,-23.137501
1782299600818,0.519243,0.921237,9.160824,0.038514,-0.038096,-0.118494,-5.71875,-7.6875,-25.293751
1782299600821,0.526421,0.911665,9.325929,0.040347,-0.016715,-0.13682,-5.71875,-7.6875,-25.293751
1782299600830,0.507278,0.976272,9.404892,0.066003,0.007719,-0.145983,-4.81875,-7.5375,-25.143751
1782299600839,0.521635,1.098306,9.366607,0.119148,0.043149,-0.153313,-5.8875,-6.7875,-25.44375
1782299600847,0.476172,1.189233,9.263716,0.189398,0.082245,-0.1582,-5.8875,-6.7875,-25.44375
1782299600849,0.476172,1.189233,9.263716,0.189398,0.082245,-0.1582,-7.5,-7.95,-25.743752
1782299600855,0.476172,1.189233,9.263716,0.251095,0.110344,-0.16492,-7.5,-7.95,-25.743752
1782299600856,0.401994,1.294517,9.144075,0.251095,0.110344,-0.16492,-7.5,-7.95,-25.743752
1782299600860,0.401994,1.294517,9.144075,0.251095,0.110344,-0.16492,-5.86875,-7.81875,-24.843752
1782299600864,0.291924,1.368695,9.034005,0.274919,0.112788,-0.174083,-5.86875,-7.81875,-24.843752
1782299600869,0.291924,1.368695,9.034005,0.274919,0.112788,-0.174083,-7.0875,-6.76875,-25.44375
1782299600873,0.217747,1.435694,9.055541,0.250484,0.074303,-0.182024,-7.0875,-6.76875,-25.44375
1782299600881,0.184247,1.457229,9.27568,0.194285,0.016882,-0.194241,-5.625,-6.05625,-24.825001
1782299600890,0.184247,1.457229,9.27568,0.130755,-0.039317,-0.209513,-5.625,-6.05625,-24.825001
1782299600891,0.157926,1.392623,9.646568,0.130755,-0.039317,-0.209513,-5.1375,-6.35625,-25.893751
1782299600900,0.196211,1.311267,10.070097,0.072722,-0.070472,-0.225395,-7.2,-7.95,-25.743752
1782299600916,0.248854,1.105484,10.831015,0.002473,-0.064974,-0.245554,-6.3375,-7.0875,-25.44375
1782299600920,0.248854,1.105484,10.831015,0.002473,-0.064974,-0.245554,-5.64375,-9.0,-26.062502
1782299600923,0.236889,0.988236,11.252152,0.007971,-0.035652,-0.247386,-5.64375,-9.0,-26.062502
1782299600930,0.236889,0.988236,11.252152,0.007971,-0.035652,-0.247386,-6.3375,-6.3375,-26.19375
1782299600932,0.263211,0.863809,11.656539,0.039125,0.018104,-0.247997,-6.3375,-6.3375,-26.19375
1782299600939,0.263211,0.863809,11.656539,0.039125,0.018104,-0.247997,-4.70625,-6.95625,-24.525002
1782299600940,0.263211,0.863809,11.656539,0.089827,0.07919,-0.252273,-4.70625,-6.95625,-24.525002
1782299600941,0.256032,0.782453,11.938892,0.089827,0.07919,-0.252273,-4.70625,-6.95625,-24.525002
1782299600950,0.234497,0.758525,12.120746,0.144804,0.132946,-0.260825,-4.51875,-5.625,-26.643751
1782299600960,0.172283,0.81356,12.084854,0.197339,0.167766,-0.268767,-5.83125,-7.81875,-26.212502
1782299600966,0.172283,0.81356,12.084854,0.237656,0.185481,-0.275486,-5.83125,-7.81875,-26.212502
1782299600967,0.088534,0.964308,11.850358,0.237656,0.185481,-0.275486,-5.83125,-7.81875,-26.212502
1782299600968,0.088534,0.964308,11.850358,0.237656,0.185481,-0.275486,-5.83125,-7.81875,-26.212502
1782299600975,0.043071,1.134198,11.496219,0.258425,0.176318,-0.277319,-5.83125,-7.81875,-26.212502
1782299600980,0.043071,1.134198,11.496219,0.258425,0.176318,-0.277319,-5.71875,-6.4875,-26.043751
1782299600984,0.045464,1.229911,11.08944,0.244986,0.139055,-0.274875,-5.71875,-6.4875,-26.043751
1782299600990,0.045464,1.229911,11.08944,0.244986,0.139055,-0.274875,-6.46875,-6.91875,-26.043751
1782299600992,0.069392,1.229911,10.878871,0.185732,0.094462,-0.270599,-6.46875,-6.91875,-26.043751
1782299600998,0.069392,1.229911,10.878871,0.185732,0.094462,-0.270599,-6.6375,-7.0875,-25.143751
1782299601000,0.062213,1.210768,10.914764,0.082496,0.039484,-0.27121,-6.6375,-7.0875,-25.143751
1782299601009,0.0335,1.232304,11.096618,-0.045174,-0.028322,-0.276708,-6.35625,-6.0375,-25.893751
1782299601019,-0.011964,1.244268,11.388543,-0.173456,-0.094906,-0.284649,-5.71875,-6.9375,-26.043751
1782299601026,-0.011964,1.244268,11.388543,-0.288299,-0.134002,-0.288925,-5.71875,-6.9375,-26.043751
1782299601027,-0.004786,1.083949,11.603897,-0.288299,-0.134002,-0.288925,-5.71875,-6.9375,-26.043751
1782299601028,-0.004786,1.083949,11.603897,-0.288299,-0.134002,-0.288925,-5.41875,-7.6875,-24.993752
1782299601035,0.071785,0.81356,11.737895,-0.38787,-0.149884,-0.288314,-5.41875,-7.6875,-24.993752
1782299601039,0.071785,0.81356,11.737895,-0.38787,-0.149884,-0.288314,-5.8125,-7.51875,-27.262501
1782299601043,0.117248,0.478565,11.943677,-0.464228,-0.15416,-0.282206,-5.8125,-7.51875,-27.262501
1782299601049,0.117248,0.478565,11.943677,-0.464228,-0.15416,-0.282206,-5.7375,-6.20625,-25.725
1782299601052,0.16989,0.196211,12.316958,-0.502101,-0.138888,-0.271821,-5.7375,-6.20625,-25.725
1782299601059,0.16989,0.196211,12.316958,-0.502101,-0.138888,-0.271821,-7.06875,-6.01875,-27.243752
1782299601061,0.27996,-0.124427,12.659132,-0.492938,-0.092463,-0.258993,-7.06875,-6.01875,-27.243752
1782299601070,0.399601,-0.315853,12.738095,-0.436739,-0.022213,-0.244943,-6.16875,-5.8875,-27.093752
1782299601080,0.442672,-0.349352,12.477276,-0.337168,0.037041,-0.230893,-5.19375,-6.075,-24.375002
1782299601087,0.437887,-0.294317,11.907785,-0.207054,0.069416,-0.2144,-5.19375,-6.075,-24.375002
1782299601089,0.437887,-0.294317,11.907785,-0.207054,0.069416,-0.2144,-6.15,-7.21875,-26.043751
1782299601096,0.358923,-0.12682,11.235402,-0.064722,0.086521,-0.199739,-6.15,-7.21875,-26.043751
1782299601100,0.358923,-0.12682,11.235402,-0.064722,0.086521,-0.199739,-5.11875,-7.0875,-25.44375
1782299601104,0.303888,0.11007,10.507984,0.047677,0.093851,-0.189354,-5.11875,-7.0875,-25.44375
1782299601110,0.303888,0.11007,10.507984,0.047677,0.093851,-0.189354,-6.75,-6.46875,-27.093752
1782299601126,0.174676,0.588634,9.378571,0.086772,0.046814,-0.175915,-6.69375,-7.2,-28.331251
1782299601130,0.069392,0.765703,9.146468,0.019577,-0.005109,-0.168585,-5.7375,-5.90625,-26.343752
1782299601139,0.069392,0.765703,9.146468,-0.060446,-0.061309,-0.163698,-6.20625,-6.1875,-25.743752
1782299601140,-0.045464,0.854238,9.108182,-0.060446,-0.061309,-0.163698,-6.20625,-6.1875,-25.743752
1782299601146,-0.114855,0.856631,9.191931,-0.125809,-0.098571,-0.163698,-6.20625,-6.1875,-25.743752
1782299601148,-0.114855,0.856631,9.191931,-0.125809,-0.098571,-0.163698,-5.1,-7.0875,-25.893751
1782299601155,-0.074178,0.820738,9.287644,-0.153298,-0.101626,-0.168585,-5.1,-7.0875,-25.893751
1782299601159,-0.074178,0.820738,9.287644,-0.153298,-0.101626,-0.168585,-5.8875,-6.05625,-26.19375
1782299601163,-0.074178,0.820738,9.287644,-0.144745,-0.07658,-0.177748,-5.8875,-6.05625,-26.19375
1782299601164,-0.028714,0.777667,9.306787,-0.144745,-0.07658,-0.177748,-5.8875,-6.05625,-26.19375
1782299601170,-0.028714,0.777667,9.306787,-0.144745,-0.07658,-0.177748,-6.88125,-4.725,-24.956251
1782299601173,0.040678,0.732204,9.19911,-0.110537,-0.035041,-0.185078,-6.88125,-4.725,-24.956251
1782299601179,0.040678,0.732204,9.19911,-0.110537,-0.035041,-0.185078,-4.95,-6.20625,-27.093752
1782299601181,0.119641,0.672383,9.017255,-0.067776,0.011995,-0.188743,-4.95,-6.20625,-27.093752
1782299601190,0.205783,0.61017,8.895221,-0.023794,0.060253,-0.191187,-4.85625,-4.59375,-26.625002
1782299601199,0.205783,0.61017,8.895221,0.011025,0.106068,-0.197295,-4.85625,-4.59375,-26.625002
1782299601200,0.263211,0.507278,8.766009,0.011025,0.106068,-0.197295,-5.53125,-7.0875,-26.962502
1782299601206,0.263211,0.507278,8.766009,0.030573,0.145164,-0.20768,-5.53125,-7.0875,-26.962502
1782299601207,0.311067,0.418744,8.744473,0.030573,0.145164,-0.20768,-5.53125,-7.0875,-26.962502
1782299601208,0.311067,0.418744,8.744473,0.030573,0.145164,-0.20768,-6.43125,-5.8875,-27.862501
1782299601215,0.306281,0.303888,8.816258,0.020799,0.175707,-0.226617,-6.43125,-5.8875,-27.862501
1782299601220,0.306281,0.303888,8.816258,0.020799,0.175707,-0.226617,-5.71875,-6.4875,-26.043751
1782299601229,0.267996,0.222533,8.926328,-0.012799,0.168987,-0.249219,-6.16875,-5.8875,-26.793751
1782299601233,0.181855,0.155533,9.136897,-0.059835,0.123173,-0.273654,-6.16875,-5.8875,-26.793751
1782299601239,0.181855,0.155533,9.136897,-0.059835,0.123173,-0.273654,-6.39375,-5.60625,-25.125002
1782299601241,0.189033,0.09332,9.395321,-0.097709,0.06514,-0.293812,-6.39375,-5.60625,-25.125002
1782299601249,0.189033,0.09332,9.395321,-0.114202,0.019936,-0.309084,-6.13125,-6.91875,-26.812502
1782299601250,0.179462,0.004786,9.555641,-0.114202,0.019936,-0.309084,-6.13125,-6.91875,-26.812502
1782299601259,0.210568,-0.019143,9.60589,-0.103818,0.015049,-0.317636,-6.20625,-4.70625,-27.093752
1782299601266,0.265603,0.047856,9.493427,-0.070831,0.049258,-0.317025,-6.20625,-4.70625,-27.093752
1782299601268,0.265603,0.047856,9.493427,-0.070831,0.049258,-0.317025,-4.9875,-5.90625,-26.343752
1782299601275,0.337388,0.160319,9.266109,-0.018907,0.098127,-0.302975,-4.9875,-5.90625,-26.343752
1782299601278,0.337388,0.160319,9.266109,-0.018907,0.098127,-0.302975,-7.275,-4.70625,-26.775002
1782299601283,0.404387,0.277567,8.890436,0.039125,0.151883,-0.279762,-7.275,-4.70625,-26.775002
1782299601289,0.404387,0.277567,8.890436,0.039125,0.151883,-0.279762,-6.675,-5.00625,-26.175001
1782299601292,0.404387,0.277567,8.890436,0.094714,0.195255,-0.252884,-6.675,-5.00625,-26.175001
1782299601293,0.454636,0.387637,8.574583,0.094714,0.195255,-0.252884,-6.675,-5.00625,-26.175001
1782299601298,0.454636,0.387637,8.574583,0.094714,0.195255,-0.252884,-5.56875,-5.00625,-27.69375
1782299601301,0.480957,0.504886,8.38555,0.140528,0.233739,-0.22173,-5.56875,-5.00625,-27.69375
1782299601309,0.480957,0.504886,8.38555,0.170461,0.258785,-0.19363,-5.41875,-5.45625,-27.093752
1782299601310,0.442672,0.600598,8.297016,0.170461,0.258785,-0.19363,-5.41875,-5.45625,-27.093752
1782299601320,0.323031,0.658026,8.222838,0.175348,0.268558,-0.171639,-7.14375,-4.55625,-26.175001
1782299601327,0.196211,0.691526,8.18216,0.1558,0.233128,-0.158811,-7.14375,-4.55625,-26.175001
1782299601342,0.09332,0.753739,8.268302,0.122813,0.16349,-0.149037,-5.775,-3.39375,-27.525002
1782299601345,-0.011964,0.842274,8.459728,0.093492,0.085299,-0.139874,-5.775,-3.39375,-27.525002
1782299601349,-0.011964,0.842274,8.459728,0.093492,0.085299,-0.139874,-6.375,-4.575,-26.625002
1782299601352,-0.011964,0.842274,8.459728,0.083107,0.037651,-0.1301,-6.375,-4.575,-26.625002
1782299601353,-0.11007,0.899701,8.603297,0.083107,0.037651,-0.1301,-6.375,-4.575,-26.625002
1782299601358,-0.11007,0.899701,8.603297,0.083107,0.037651,-0.1301,-6.15,-6.4875,-27.093752
1782299601361,-0.157926,0.937986,8.567404,0.087383,0.023602,-0.113607,-6.15,-6.4875,-27.093752
1782299601369,-0.157926,0.937986,8.567404,0.087383,0.023602,-0.113607,-5.60625,-4.575,-26.625002
1782299601371,-0.177069,0.971486,8.459728,0.097768,0.037651,-0.093448,-5.60625,-4.575,-26.625002
1782299601381,-0.18664,0.985843,8.402299,0.106931,0.06514,-0.065349,-4.21875,-5.475,-27.093752
1782299601387,-0.16989,0.995414,8.371193,0.114872,0.101181,-0.033584,-4.21875,-5.475,-27.093752
1782299601389,-0.16989,0.995414,8.371193,0.114872,0.101181,-0.033584,-5.15625,-4.575,-26.925001
1782299601396,-0.20339,1.021735,8.423835,0.125257,0.141498,-0.00243,-5.15625,-4.575,-26.925001
1782299601399,-0.20339,1.021735,8.423835,0.125257,0.141498,-0.00243,-4.65,-5.90625,-27.093752
1782299601405,-0.236889,1.031307,8.514762,0.138085,0.181816,0.026281,-4.65,-5.90625,-27.093752
1782299601420,-0.236889,1.031307,8.514762,0.138085,0.181816,0.026281,-6.16875,-4.70625,-27.843752
1782299601421,-0.299103,0.976272,8.620047,0.152746,0.200142,0.050105,-6.16875,-4.70625,-27.843752
1782299601429,-0.344566,0.949951,8.699009,0.160076,0.176929,0.068431,-5.11875,-5.30625,-27.243752
1782299601430,-0.339781,0.921237,8.861722,0.152746,0.129281,0.082481,-5.11875,-5.30625,-27.243752
1782299601440,-0.332602,0.904487,9.062719,0.138085,0.067584,0.0892,-5.1,-6.05625,-27.243752
1782299601447,-0.323031,0.942772,9.246966,0.125868,0.004665,0.097141,-5.1,-6.05625,-27.243752
1782299601448,-0.323031,0.942772,9.246966,0.125868,0.004665,0.097141,-5.1,-6.05625,-27.243752
1782299601455,-0.287139,1.024128,9.318751,0.126479,-0.04848,0.102639,-5.1,-6.05625,-27.243752
1782299601458,-0.287139,1.024128,9.318751,0.126479,-0.04848,0.102639,-3.6375,-4.14375,-27.543751
1782299601464,-0.217747,1.071985,9.266109,0.139918,-0.0833,0.104472,-3.6375,-4.14375,-27.543751
1782299601470,-0.217747,1.071985,9.266109,0.139918,-0.0833,0.104472,-5.7375,-4.70625,-27.543751
1782299601473,-0.150748,1.150948,9.14886,0.155189,-0.109567,0.104472,-5.7375,-4.70625,-27.543751
1782299601480,-0.150748,1.150948,9.14886,0.155189,-0.109567,0.104472,-5.7375,-4.70625,-27.543751
1782299601481,-0.07657,1.234697,9.048362,0.16313,-0.124839,0.102028,-5.7375,-4.70625,-27.543751
1782299601489,-0.07657,1.234697,9.048362,0.16313,-0.124839,0.102028,-4.9875,-5.175,-26.793751
1782299601490,-0.009571,1.261018,9.055541,0.156411,-0.131558,0.098974,-4.9875,-5.175,-26.793751
1782299601500,-0.009571,1.261018,9.055541,0.138085,-0.122395,0.096531,-4.9875,-5.175,-26.793751
1782299601501,0.055035,1.253839,9.246966,0.138085,-0.122395,0.096531,-5.56875,-5.60625,-26.94375
1782299601507,0.086142,1.284946,9.63221,0.123424,-0.094906,0.095309,-5.56875,-5.60625,-26.94375
1782299601509,0.086142,1.284946,9.63221,0.123424,-0.094906,0.095309,-6.3,-5.5875,-27.69375
1782299601516,0.150748,1.292124,10.024634,0.126479,-0.038096,0.098974,-6.3,-5.5875,-27.69375
1782299601518,0.150748,1.292124,10.024634,0.126479,-0.038096,0.098974,-5.85,-5.00625,-27.993752
1782299601525,0.287139,1.241875,10.340486,0.141139,0.035208,0.10997,-5.85,-5.00625,-27.993752
1782299601533,0.351745,1.162912,10.618054,0.163741,0.110955,0.119743,-5.3625,-4.70625,-29.362501
1782299601538,0.351745,1.162912,10.618054,0.163741,0.110955,0.119743,-4.575,-5.45625,-29.6625
1782299601541,0.370888,1.107877,10.840586,0.192452,0.169598,0.127685,-4.575,-5.45625,-29.6625
1782299601548,0.370888,1.107877,10.840586,0.192452,0.169598,0.127685,-5.60625,-4.275,-26.925001
1782299601550,0.370888,1.107877,10.840586,0.215665,0.203196,0.132572,-5.60625,-4.275,-26.925001
1782299601551,0.375673,1.088734,11.027226,0.215665,0.203196,0.132572,-5.60625,-4.275,-26.925001
1782299601560,0.327817,1.067199,11.16601,0.224828,0.191589,0.135015,-5.00625,-4.44375,-26.775002
1782299601567,0.29671,1.055235,11.285651,0.222384,0.137222,0.136237,-5.00625,-4.44375,-26.775002
1782299601568,0.29671,1.055235,11.285651,0.222384,0.137222,0.136237,-4.725,-5.30625,-29.831251
1782299601576,0.232104,1.045663,11.41247,0.213221,0.070027,0.138069,-4.725,-5.30625,-29.831251
1782299601579,0.232104,1.045663,11.41247,0.213221,0.070027,0.138069,-5.55,-5.30625,-27.69375
1782299601584,0.150748,1.11027,11.47947,0.207724,0.022991,0.141735,-5.55,-5.30625,-27.69375
1782299601590,0.150748,1.11027,11.47947,0.207724,0.022991,0.141735,-5.41875,-6.20625,-26.343752
1782299601593,0.062213,1.232304,11.333507,0.207724,0.011384,0.146621,-5.41875,-6.20625,-26.343752
1782299601599,0.062213,1.232304,11.333507,0.207724,0.011384,0.146621,-5.8875,-4.55625,-27.69375
1782299601601,0.062213,1.232304,11.333507,0.193063,0.004665,0.155174,-5.8875,-4.55625,-27.69375
1782299601602,-0.055035,1.363909,11.005691,0.193063,0.004665,0.155174,-5.8875,-4.55625,-27.69375
1782299601609,-0.055035,1.363909,11.005691,0.193063,0.004665,0.155174,-6.45,-7.21875,-26.343752
1782299601611,-0.162712,1.433301,10.831015,0.147248,-0.020992,0.171056,-6.45,-7.21875,-26.343752
1782299601621,-0.277567,1.481157,10.926728,0.071501,-0.052146,0.193658,-4.7625,-6.05625,-28.012501
1782299601627,-0.425922,1.536192,11.113368,-0.004857,-0.072915,0.215038,-4.7625,-6.05625,-28.012501
1782299601639,-0.57667,1.521835,11.223438,-0.065944,-0.074137,0.234586,-7.2375,-5.1375,-27.543751
1782299601644,-0.600598,1.411765,11.25933,-0.065944,-0.074137,0.234586,-7.2375,-5.1375,-27.543751
1782299601645,-0.600598,1.411765,11.25933,-0.116646,-0.058865,0.252301,-7.2375,-5.1375,-27.543751
1782299601649,-0.600598,1.411765,11.25933,-0.116646,-0.058865,0.252301,-5.45625,-7.06875,-29.231251
1782299601653,-0.564706,1.258625,11.326329,-0.166126,-0.053367,0.259631,-5.45625,-7.06875,-29.231251
1782299601659,-0.564706,1.258625,11.326329,-0.166126,-0.053367,0.259631,-5.00625,-3.69375,-27.525002
1782299601661,-0.42353,1.004985,11.491434,-0.222325,-0.075359,0.253523,-5.00625,-3.69375,-27.525002
1782299601669,-0.42353,1.004985,11.491434,-0.222325,-0.075359,0.253523,-4.9875,-5.175,-26.793751
1782299601670,-0.270389,0.638884,11.802501,-0.222325,-0.075359,0.253523,-4.9875,-5.175,-26.793751
1782299601671,-0.270389,0.638884,11.802501,-0.290131,-0.112621,0.232753,-4.9875,-5.175,-26.793751
1782299601680,-0.181855,0.22014,12.178174,-0.364657,-0.148662,0.202821,-7.0875,-6.0375,-26.19375
1782299601688,-0.162712,-0.174676,12.561025,-0.425132,-0.198142,0.164337,-7.0875,-6.0375,-26.19375
1782299601689,-0.162712,-0.174676,12.561025,-0.425132,-0.198142,0.164337,-5.68125,-5.4375,-28.612501
1782299601696,-0.114855,-0.4666,12.75963,-0.450178,-0.250677,0.128906,-5.68125,-5.4375,-28.612501
1782299601699,-0.114855,-0.4666,12.75963,-0.450178,-0.250677,0.128906,-5.53125,-6.0375,-28.012501
1782299601704,-0.083749,-0.62692,12.735702,-0.40925,-0.287939,0.105083,-5.53125,-6.0375,-28.012501
1782299601709,-0.083749,-0.62692,12.735702,-0.40925,-0.287939,0.105083,-6.3375,-4.25625,-27.69375
1782299601713,-0.081356,-0.643669,12.307386,-0.291353,-0.270224,0.101417,-6.3375,-4.25625,-27.69375
1782299601718,-0.081356,-0.643669,12.307386,-0.291353,-0.270224,0.101417,-5.0625,-5.30625,-28.762501
1782299601721,-0.081356,-0.643669,12.307386,-0.11298,-0.206084,0.113635,-5.0625,-5.30625,-28.762501
1782299601722,-0.119641,-0.471386,11.522541,-0.11298,-0.206084,0.113635,-5.0625,-5.30625,-28.762501
1782299601729,-0.119641,-0.471386,11.522541,-0.11298,-0.206084,0.113635,-6.46875,-5.1375,-27.843752
1782299601731,-0.133998,-0.193819,10.58934,0.081885,-0.115065,0.137458,-6.46875,-5.1375,-27.843752
1782299601752,-0.150748,0.607777,9.057933,0.34639,0.084077,0.188771,-6.43125,-5.1375,-28.9125
1782299601756,-0.258425,0.959522,8.524334,0.381209,0.148829,0.200378,-6.43125,-5.1375,-28.9125
1782299601759,-0.258425,0.959522,8.524334,0.381209,0.148829,0.200378,-4.9875,-5.175,-26.793751
1782299601765,-0.37328,1.189233,8.146267,0.332951,0.159824,0.200988,-4.9875,-5.175,-26.793751
1782299601770,-0.37328,1.189233,8.146267,0.332951,0.159824,0.200988,-6.6375,-5.00625,-27.243752
1782299601773,-0.454636,1.256232,8.024234,0.207113,0.123173,0.19488,-6.6375,-5.00625,-27.243752
1782299601779,-0.454636,1.256232,8.024234,0.207113,0.123173,0.19488,-5.7375,-4.425,-27.843752
1782299601781,-0.567099,1.160519,8.060126,0.037903,0.049869,0.188771,-5.7375,-4.425,-27.843752
1782299601788,-0.567099,1.160519,8.060126,0.037903,0.049869,0.188771,-6.13125,-5.4375,-28.312502
1782299601790,-0.605384,0.971486,8.416657,-0.134972,-0.050313,0.185106,-6.13125,-5.4375,-28.312502
1782299601800,-0.617348,0.784846,8.854543,-0.266918,-0.15416,0.18083,-6.24375,-4.9875,-29.812502
1782299601807,-0.514457,0.62692,9.27568,-0.328616,-0.227464,0.178997,-6.24375,-4.9875,-29.812502
1782299601808,-0.514457,0.62692,9.27568,-0.328616,-0.227464,0.178997,-6.58125,-4.9875,-29.212502
1782299601816,-0.413958,0.526421,9.438392,-0.33167,-0.233572,0.183273,-6.58125,-4.9875,-29.212502
1782299601818,-0.413958,0.526421,9.438392,-0.33167,-0.233572,0.183273,-5.68125,-4.10625,-29.6625
1782299601824,-0.0335,0.437887,9.14886,-0.286466,-0.211581,0.193658,-5.68125,-4.10625,-29.6625
1782299601829,-0.0335,0.437887,9.14886,-0.286466,-0.211581,0.193658,-6.16875,-4.40625,-28.593752
1782299601833,-0.045464,0.418744,8.995719,-0.234543,-0.21036,0.207097,-6.16875,-4.40625,-28.593752
1782299601840,-0.045464,0.418744,8.995719,-0.234543,-0.21036,0.207097,-7.05,-5.2875,-27.993752
1782299601841,-0.023928,0.497707,8.909578,-0.185673,-0.215247,0.212595,-7.05,-5.2875,-27.993752
1782299601848,-0.023928,0.497707,8.909578,-0.185673,-0.215247,0.212595,-5.53125,-3.80625,-29.812502
1782299601850,-0.028714,0.571885,8.94547,-0.149632,-0.203029,0.216871,-5.53125,-3.80625,-29.812502
1782299601860,-0.007178,0.59342,8.938292,-0.136804,-0.178595,0.219925,-7.25625,-2.925,-28.893751
1782299601867,-0.011964,0.564706,9.01247,-0.139248,-0.136445,0.210762,-7.25625,-2.925,-28.893751
1782299601868,-0.011964,0.564706,9.01247,-0.139248,-0.136445,0.210762,-6.58125,-4.5375,-29.212502
1782299601876,0.011964,0.579063,9.134504,-0.144745,-0.098571,0.193047,-6.58125,-4.5375,-29.212502
1782299601878,0.011964,0.579063,9.134504,-0.144745,-0.098571,0.193047,-5.775,-3.69375,-27.075001
1782299601885,0.011964,0.646062,9.239788,-0.12703,-0.074748,0.171056,-5.775,-3.69375,-27.075001
1782299601889,0.011964,0.646062,9.239788,-0.12703,-0.074748,0.171056,-5.45625,-3.69375,-27.525002
1782299601893,0.047856,0.708275,9.299609,-0.080605,-0.055811,0.144178,-5.45625,-3.69375,-27.525002
1782299601899,0.047856,0.708275,9.299609,-0.080605,-0.055811,0.144178,-7.05,-3.80625,-29.512501
1782299601901,0.088534,0.748953,9.311573,-0.008523,-0.036263,0.113635,-7.05,-3.80625,-29.512501
1782299601909,0.088534,0.748953,9.311573,-0.008523,-0.036263,0.113635,-5.83125,-2.2125,-27.056252
1782299601910,0.105284,0.81356,9.163217,0.070279,-0.008163,0.083091,-5.83125,-2.2125,-27.056252
1782299601920,0.133998,0.911665,8.847365,0.135641,0.02238,0.051327,-5.83125,-2.2125,-27.056252
1782299601927,0.157926,0.978664,8.541084,0.175959,0.039484,0.027503,-5.83125,-2.2125,-27.056252
1782299601928,0.157926,0.978664,8.541084,0.175959,0.039484,0.027503,-6.46875,-3.35625,-29.343752
1782299601936,0.208176,1.024128,8.316158,0.1839,0.062086,0.008566,-6.46875,-3.35625,-29.343752
1782299601947,0.212961,1.019342,8.218052,0.166185,0.089575,-0.006706,-6.76875,-4.40625,-28.593752
1782299601949,0.212961,1.019342,8.218052,0.166185,0.089575,-0.006706,-7.03125,-4.9875,-29.212502
1782299601954,0.193819,0.997807,8.246767,0.137474,0.112788,-0.019534,-7.03125,-4.9875,-29.212502
1782299601959,0.193819,0.997807,8.246767,0.137474,0.112788,-0.019534,-6.09375,-5.4375,-29.362501
1782299601962,0.145962,0.961915,8.347265,0.105709,0.113399,-0.032973,-6.09375,-5.4375,-29.362501
1782299601968,0.145962,0.961915,8.347265,0.105709,0.113399,-0.032973,-7.0125,-4.2375,-30.562502
1782299601970,0.145962,0.961915,8.347265,0.083107,0.103014,-0.045801,-7.0125,-4.2375,-30.562502
1782299601971,0.074178,0.92363,8.457335,0.083107,0.103014,-0.045801,-7.0125,-4.2375,-30.562502
1782299601980,0.038285,0.897308,8.529119,0.073944,0.098738,-0.059851,-6.50625,-3.675,-27.825001
1782299601989,-0.088534,0.930808,8.624833,0.08494,0.107901,-0.075122,-6.46875,-4.70625,-28.293751
1782299601996,0.102891,0.868595,8.536298,0.111818,0.115842,-0.091616,-6.46875,-4.70625,-28.293751
1782299601998,0.102891,0.868595,8.536298,0.111818,0.115842,-0.091616,-6.45,-4.6875,-28.593752
1782299602005,0.069392,0.825524,8.550655,0.135031,0.111566,-0.106887,-6.45,-4.6875,-28.593752
1782299602009,0.069392,0.825524,8.550655,0.135031,0.111566,-0.106887,-6.84375,-2.925,-27.525002
1782299602014,0.047856,0.820738,8.55544,0.146026,0.106679,-0.128879,-6.84375,-2.925,-27.525002
1782299602020,0.047856,0.820738,8.55544,0.146026,0.106679,-0.128879,-5.1,-4.275,-28.743752
1782299602022,0.07657,0.81356,8.581762,0.138085,0.092018,-0.147205,-5.1,-4.275,-28.743752
1782299602029,0.07657,0.81356,8.581762,0.138085,0.092018,-0.147205,-5.34375,-5.4375,-29.362501
1782299602031,0.069392,0.839881,8.727724,0.125257,0.062086,-0.155757,-5.34375,-5.4375,-29.362501
1782299602040,0.069392,0.945165,8.856936,0.119759,0.030932,-0.160644,-6.73125,-5.1375,-28.9125
1782299602053,0.066999,1.06002,8.935899,0.128922,0.007719,-0.154535,-6.1125,-5.86875,-28.9125
1782299602056,0.071785,1.213161,8.892828,0.146026,-0.005109,-0.138042,-6.1125,-5.86875,-28.9125
1782299602058,0.071785,1.213161,8.892828,0.146026,-0.005109,-0.138042,-5.4375,-2.19375,-29.643751
1782299602065,0.069392,1.328017,8.768402,0.157633,-0.003887,-0.114829,-5.4375,-2.19375,-29.643751
1782299602069,0.069392,1.328017,8.768402,0.157633,-0.003887,-0.114829,-5.55,-3.075,-29.793751
1782299602073,0.007178,1.45005,8.670296,0.151524,-0.017937,-0.091005,-5.55,-3.075,-29.793751
1782299602079,0.007178,1.45005,8.670296,0.151524,-0.017937,-0.091005,-6.31875,-5.00625,-27.993752
1782299602082,-0.050249,1.545763,8.670296,0.116094,-0.034431,-0.062294,-6.31875,-5.00625,-27.993752
1782299602089,-0.050249,1.545763,8.670296,0.116094,-0.034431,-0.062294,-5.4,-4.70625,-28.293751
1782299602090,-0.095713,1.596013,8.854543,0.059283,-0.052146,-0.030529,-5.4,-4.70625,-28.293751
1782299602099,-0.095713,1.596013,8.854543,0.005527,-0.075969,0.001236,-5.4,-4.70625,-28.293751
1782299602100,-0.172283,1.643869,9.189539,0.005527,-0.075969,0.001236,-5.3625,-4.70625,-29.362501
1782299602109,-0.172283,1.643869,9.189539,-0.02807,-0.095517,0.027503,-5.3625,-4.70625,-29.362501
1782299602110,-0.294317,1.600798,9.617854,-0.02807,-0.095517,0.027503,-5.64375,-6.1875,-28.612501
1782299602117,-0.435494,1.57687,10.036598,-0.044564,-0.096739,0.048272,-5.64375,-6.1875,-28.612501
1782299602119,-0.435494,1.57687,10.036598,-0.044564,-0.096739,0.048272,-4.59375,-5.8875,-28.9125
1782299602125,-0.495314,1.567299,10.366807,-0.04884,-0.099182,0.062933,-4.59375,-5.8875,-28.9125
1782299602130,-0.495314,1.567299,10.366807,-0.04884,-0.099182,0.062933,-4.65,-4.425,-28.593752
1782299602134,-0.547956,1.509871,10.627625,-0.046396,-0.107123,0.070874,-4.65,-4.425,-28.593752
1782299602139,-0.547956,1.509871,10.627625,-0.046396,-0.107123,0.070874,-5.45625,-4.125,-27.075001
1782299602142,-0.547956,1.509871,10.627625,-0.044564,-0.108956,0.072096,-5.45625,-4.125,-27.075001
1782299602143,-0.564706,1.440479,10.845372,-0.044564,-0.108956,0.072096,-5.45625,-4.125,-27.075001
1782299602155,-0.547956,1.31366,10.957835,-0.047618,-0.093684,0.064766,-4.9125,-5.15625,-28.9125
1782299602160,-0.507278,1.167697,11.027226,-0.053116,-0.072915,0.047661,-5.6625,-3.65625,-30.862501
1782299602169,-0.452243,1.014557,11.209081,-0.053727,-0.071693,0.018951,-6.7125,-5.41875,-29.362501
1782299602176,-0.452243,1.014557,11.209081,-0.040898,-0.081467,-0.017701,-6.7125,-5.41875,-29.362501
1782299602177,-0.351745,1.024128,11.481863,-0.040898,-0.081467,-0.017701,-6.7125,-5.41875,-29.362501
1782299602179,-0.351745,1.024128,11.481863,-0.040898,-0.081467,-0.017701,-6.58125,-5.2875,-28.762501
1782299602185,-0.234497,1.136591,11.635004,-0.010355,-0.099182,-0.062294,-6.58125,-5.2875,-28.762501
1782299602189,-0.234497,1.136591,11.635004,-0.010355,-0.099182,-0.062294,-5.45625,-2.94375,-28.593752
1782299602194,-0.234497,1.136591,11.635004,0.032405,-0.134612,-0.103222,-5.45625,-2.94375,-28.593752
1782299602195,-0.117248,1.339981,11.603897,0.032405,-0.134612,-0.103222,-5.45625,-2.94375,-28.593752
1782299602199,-0.117248,1.339981,11.603897,0.032405,-0.134612,-0.103222,-4.8,-4.575,-28.44375
1782299602202,0.043071,1.478764,11.405292,0.075166,-0.17554,-0.140485,-4.8,-4.575,-28.44375
1782299602209,0.043071,1.478764,11.405292,0.075166,-0.17554,-0.140485,-6.4875,-3.675,-28.293751
1782299602211,0.043071,1.478764,11.405292,0.094103,-0.208527,-0.171028,-6.4875,-3.675,-28.293751
1782299602212,0.16989,1.552942,11.18276,0.094103,-0.208527,-0.171028,-6.4875,-3.675,-28.293751
1782299602221,0.236889,1.617548,10.998513,0.073333,-0.222577,-0.197295,-6.39375,-5.41875,-29.681252
1782299602230,0.248854,1.667797,10.957835,0.009192,-0.223188,-0.22173,-5.7375,-4.425,-27.843752
1782299602237,0.253639,1.672583,11.027226,-0.076939,-0.198142,-0.240667,-5.7375,-4.425,-27.843752
1782299602239,0.253639,1.672583,11.027226,-0.076939,-0.198142,-0.240667,-5.64375,-5.8875,-29.38125
1782299602245,0.291924,1.4668,11.084654,-0.167958,-0.136445,-0.256549,-5.64375,-5.8875,-29.38125
1782299602249,0.291924,1.4668,11.084654,-0.167958,-0.136445,-0.256549,-6.15,-5.8875,-27.543751
1782299602262,0.39003,0.78006,11.244973,-0.348163,0.051701,-0.286482,-6.1125,-5.1375,-29.362501
1782299602269,0.39003,0.78006,11.244973,-0.348163,0.051701,-0.286482,-4.14375,-4.725,-29.6625
1782299602271,0.457029,0.380459,11.603897,-0.412915,0.126227,-0.302975,-4.14375,-4.725,-29.6625
1782299602280,0.5001,-0.038285,12.068104,-0.445291,0.194033,-0.320079,-6.43125,-4.3875,-29.362501
1782299602289,0.545564,-0.363709,12.496419,-0.433074,0.261839,-0.330464,-6.16875,-4.70625,-28.293751
1782299602297,0.545564,-0.363709,12.496419,-0.368933,0.311319,-0.336573,-6.16875,-4.70625,-28.293751
1782299602298,0.602991,-0.557528,12.592132,-0.368933,0.311319,-0.336573,-6.16875,-4.70625,-28.293751
1782299602299,0.602991,-0.557528,12.592132,-0.368933,0.311319,-0.336573,-3.88125,-3.69375,-29.6625
1782299602306,0.641276,-0.622134,12.312172,-0.263253,0.326591,-0.337794,-3.88125,-3.69375,-29.6625
1782299602310,0.641276,-0.622134,12.312172,-0.263253,0.326591,-0.337794,-3.73125,-4.275,-29.212502
1782299602315,0.681954,-0.557528,11.783358,-0.142302,0.321704,-0.328631,-3.73125,-4.275,-29.212502
1782299602320,0.681954,-0.557528,11.783358,-0.142302,0.321704,-0.328631,-3.8625,-4.425,-29.362501
1782299602322,0.665205,-0.399601,11.161224,-0.026238,0.313152,-0.310916,-3.8625,-4.425,-29.362501
1782299602329,0.665205,-0.399601,11.161224,-0.026238,0.313152,-0.310916,-4.51875,-3.84375,-28.44375
1782299602331,0.605384,-0.20339,10.457735,0.051953,0.296658,-0.291979,-4.51875,-3.84375,-28.44375
1782299602340,0.507278,0.009571,9.830815,0.078831,0.256952,-0.274264,-3.13125,-4.44375,-28.593752
1782299602350,0.435494,0.236889,9.467106,0.058673,0.205639,-0.259604,-3.2625,-4.575,-29.212502
1782299602361,0.370888,0.433101,9.306787,0.012858,0.173874,-0.247386,-4.6875,-4.14375,-27.843752
1782299602366,0.308674,0.540778,9.206288,-0.044564,0.172042,-0.234558,-4.6875,-4.14375,-27.843752
1782299602370,0.308674,0.540778,9.206288,-0.044564,0.172042,-0.234558,-4.21875,-2.6625,-29.343752
1782299602374,0.234497,0.545564,9.112968,-0.095265,0.194033,-0.223563,-4.21875,-2.6625,-29.343752
1782299602380,0.234497,0.545564,9.112968,-0.095265,0.194033,-0.223563,-3.8625,-3.675,-30.4125
1782299602382,0.172283,0.447458,9.139289,-0.129474,0.216024,-0.218065,-3.8625,-3.675,-30.4125
1782299602389,0.172283,0.447458,9.139289,-0.129474,0.216024,-0.218065,-3.075,-5.475,-29.362501
1782299602391,0.090927,0.349352,9.285251,-0.140469,0.232517,-0.212567,-3.075,-5.475,-29.362501
1782299602400,0.0335,0.27996,9.491034,-0.1197,0.239848,-0.209513,-3.075,-5.475,-29.362501
1782299602409,0.0335,0.27996,9.491034,-0.073885,0.24168,-0.208902,-3.075,-5.475,-29.362501
1782299602410,0.023928,0.210568,9.625032,-0.073885,0.24168,-0.208902,-2.15625,-5.325,-30.281252
1782299602421,0.007178,0.12682,9.644175,-0.017075,0.244124,-0.207069,-2.15625,-5.325,-30.281252
1782299602426,0.007178,0.09332,9.517355,0.028129,0.231296,-0.207069,-2.15625,-5.325,-30.281252
1782299602429,0.007178,0.09332,9.517355,0.028129,0.231296,-0.207069,-3.65625,-5.60625,-29.831251
1782299602434,0.002393,0.035892,9.3355,0.048899,0.192811,-0.205848,-3.65625,-5.60625,-29.831251
1782299602439,0.002393,0.035892,9.3355,0.048899,0.192811,-0.205848,-3.54375,-5.175,-29.362501
1782299602442,-0.145962,0.040678,9.254144,0.044623,0.133557,-0.202182,-3.54375,-5.175,-29.362501
1782299602448,-0.145962,0.040678,9.254144,0.044623,0.133557,-0.202182,-4.125,-5.45625,-29.6625
1782299602451,0.057428,0.117248,9.225431,0.027518,0.085299,-0.194241,-4.125,-5.45625,-29.6625
1782299602462,0.272782,0.074178,9.189539,0.004306,0.039484,-0.175915,-3.24375,-5.325,-29.212502
1782299602470,0.256032,0.043071,9.268502,-0.018907,-0.002055,-0.153924,-2.2875,-6.20625,-29.681252
