ts,ax,ay,az,gx,gy,gz,mx,my,mz
1782300373727,0.442672,1.253839,9.313965,-0.001345,0.014439,-0.007011,7.40625,-4.06875,-60.975002
1782300373728,0.442672,1.253839,9.313965,-0.001345,0.014439,-0.007011,6.01875,-3.16875,-61.425003
1782300373735,0.416351,1.292124,9.409678,-0.022114,0.042538,0.003374,6.01875,-3.16875,-61.425003
1782300373739,0.416351,1.292124,9.409678,-0.022114,0.042538,0.003374,7.74375,-4.06875,-62.043751
1782300373743,0.378066,1.287339,9.46232,-0.050214,0.039484,0.01498,7.74375,-4.06875,-62.043751
1782300373749,0.378066,1.287339,9.46232,-0.050214,0.039484,0.01498,6.46875,-3.61875,-60.375004
1782300373752,0.397209,1.270589,9.555641,-0.07526,0.017493,0.025365,6.46875,-3.61875,-60.375004
1782300373759,0.397209,1.270589,9.555641,-0.07526,0.017493,0.025365,8.306251,-3.9375,-60.825001
1782300373761,0.342174,1.268196,9.680068,-0.088088,0.006497,0.030863,8.306251,-3.9375,-60.825001
1782300373770,0.33021,1.208375,9.625032,-0.07526,0.010163,0.032084,7.10625,-4.06875,-60.975002
1782300373782,0.421137,1.165305,9.531712,-0.053879,0.005887,0.031473,7.21875,-3.1875,-61.125004
1782300373786,0.404387,1.232304,9.457534,-0.039829,0.017493,0.032084,7.21875,-3.1875,-61.125004
1782300373789,0.404387,1.232304,9.457534,-0.039829,0.017493,0.032084,6.28125,-2.7375,-60.506252
1782300373795,0.416351,1.270589,9.383358,-0.030056,0.038262,0.037582,6.28125,-2.7375,-60.506252
1782300373801,0.416351,1.270589,9.383358,-0.030056,0.038262,0.037582,7.33125,-2.30625,-60.506252
1782300373804,0.413958,1.239482,9.361822,-0.035553,0.059643,0.049188,7.33125,-2.30625,-60.506252
1782300373812,0.425922,1.241875,9.452749,-0.055101,0.087742,0.060184,7.06875,-2.7375,-61.275002
1782300373819,0.425922,1.241875,9.452749,-0.055101,0.087742,0.060184,8.15625,-3.7875,-60.975002
1782300373820,0.363709,1.249053,9.646568,-0.080146,0.123173,0.069958,8.15625,-3.7875,-60.975002
1782300373829,0.363709,1.249053,9.646568,-0.092364,0.161046,0.081564,8.15625,-3.7875,-60.975002
1782300373830,0.303888,1.249053,9.799708,-0.092364,0.161046,0.081564,6.825,-4.65,-61.143753
1782300373839,0.246461,1.234697,9.837993,-0.094807,0.182426,0.093171,8.7375,-2.90625,-61.125004
1782300373846,0.246461,1.234697,9.837993,-0.094196,0.17815,0.105388,8.7375,-2.90625,-61.125004
1782300373847,0.210568,1.225125,9.828422,-0.094196,0.17815,0.105388,8.7375,-2.90625,-61.125004
1782300373848,0.210568,1.225125,9.828422,-0.094196,0.17815,0.105388,8.1,-3.7875,-59.456253
1782300373855,0.167498,1.205983,9.814065,-0.08992,0.153716,0.115162,8.1,-3.7875,-59.456253
1782300373860,0.167498,1.205983,9.814065,-0.08992,0.153716,0.115162,8.15625,-3.3375,-61.725002
1782300373864,0.148355,1.20359,9.842779,-0.079536,0.122562,0.12066,8.15625,-3.3375,-61.725002
1782300373869,0.148355,1.20359,9.842779,-0.079536,0.122562,0.12066,8.4375,-4.0875,-60.525002
1782300373872,0.114855,1.182054,9.842779,-0.067318,0.095684,0.123714,8.4375,-4.0875,-60.525002
1782300373883,0.112463,1.201197,9.802101,-0.063653,0.074914,0.127379,8.4375,-4.0875,-60.525002
1782300373889,0.112463,1.201197,9.802101,-0.073427,0.046814,0.130434,8.4375,-4.0875,-60.525002
1782300373890,0.117248,1.208375,9.732709,-0.073427,0.046814,0.130434,7.03125,-1.55625,-61.256252
1782300373901,0.09332,1.237089,9.727924,-0.08259,0.02238,0.132877,9.150001,-3.075,-59.906254
1782300373907,0.088534,1.241875,9.735102,-0.088699,0.002221,0.136542,9.150001,-3.075,-59.906254
1782300373909,0.088534,1.241875,9.735102,-0.088699,0.002221,0.136542,8.26875,-3.20625,-60.825001
1782300373915,0.112463,1.249053,9.701602,-0.087477,-0.003276,0.139596,8.26875,-3.20625,-60.825001
1782300373919,0.112463,1.249053,9.701602,-0.087477,-0.003276,0.139596,6.5625,-2.7375,-59.906254
1782300373923,0.112463,1.249053,9.701602,-0.081368,-0.005109,0.139596,6.5625,-2.7375,-59.906254
1782300373924,0.124427,1.239482,9.648961,-0.081368,-0.005109,0.139596,6.5625,-2.7375,-59.906254
1782300373929,0.124427,1.239482,9.648961,-0.081368,-0.005109,0.139596,8.175,-1.89375,-59.287502
1782300373934,0.162712,1.256232,9.610675,-0.067929,-0.00572,0.140207,8.175,-1.89375,-59.287502
1782300373939,0.162712,1.256232,9.610675,-0.067929,-0.00572,0.140207,7.93125,-2.90625,-59.606251
1782300373941,0.18664,1.284946,9.581961,-0.053879,0.000389,0.140818,7.93125,-2.90625,-59.606251
1782300373951,0.184247,1.311267,9.553248,-0.038608,0.002832,0.141429,8.83125,-2.025,-60.506252
1782300373959,0.22014,1.299303,9.498212,-0.030666,0.004054,0.142651,7.93125,-2.45625,-60.356251
1782300373968,0.222533,1.325624,9.476677,-0.030666,-0.00572,0.143873,7.93125,-2.45625,-60.356251
1782300373969,0.222533,1.325624,9.476677,-0.030666,-0.00572,0.143873,7.33125,-2.75625,-60.206253
1782300373976,0.205783,1.332802,9.464713,-0.033721,-0.022824,0.142651,7.33125,-2.75625,-60.206253
1782300373980,0.205783,1.332802,9.464713,-0.033721,-0.022824,0.142651,8.681251,-2.475,-60.356251
1782300373987,0.198604,1.351945,9.46232,-0.036775,-0.038707,0.14204,8.681251,-2.475,-60.356251
1782300373989,0.198604,1.351945,9.46232,-0.036775,-0.038707,0.14204,5.79375,-2.2875,-59.437504
1782300373994,0.191426,1.385444,9.438392,-0.04044,-0.04787,0.141429,5.79375,-2.2875,-59.437504
1782300373998,0.191426,1.385444,9.438392,-0.04044,-0.04787,0.141429,5.94375,-2.1375,-60.056252
1782300374001,0.222533,1.40698,9.491034,-0.047771,-0.063141,0.14204,5.94375,-2.1375,-60.056252
1782300374009,0.222533,1.40698,9.491034,-0.057545,-0.075359,0.144483,5.94375,-2.1375,-60.056252
1782300374010,0.236889,1.452443,9.505391,-0.057545,-0.075359,0.144483,7.48125,-3.20625,-59.606251
1782300374019,0.232104,1.433301,9.510177,-0.064875,-0.079024,0.143262,7.33125,-2.75625,-60.206253
1782300374027,0.361316,1.378266,9.579568,-0.065486,-0.066196,0.144483,7.33125,-2.75625,-60.206253
1782300374028,0.361316,1.378266,9.579568,-0.065486,-0.066196,0.144483,8.025001,-1.59375,-59.437504
1782300374035,0.375673,1.397408,9.567605,-0.066097,-0.032598,0.146316,8.025001,-1.59375,-59.437504
1782300374038,0.375673,1.397408,9.567605,-0.066097,-0.032598,0.146316,8.0625,-2.025,-60.206253
1782300374044,0.39003,1.416551,9.541283,-0.069762,0.002221,0.152425,8.0625,-2.025,-60.206253
1782300374049,0.39003,1.416551,9.541283,-0.069762,0.002221,0.152425,8.0625,-1.275,-60.956253
1782300374052,0.380459,1.363909,9.591532,-0.079536,0.024823,0.154868,8.0625,-1.275,-60.956253
1782300374060,0.380459,1.363909,9.591532,-0.079536,0.024823,0.154868,7.93125,-2.45625,-60.356251
1782300374061,0.351745,1.308874,9.730317,-0.08992,0.030932,0.155479,7.93125,-2.45625,-60.356251
1782300374068,0.351745,1.308874,9.730317,-0.08992,0.030932,0.155479,8.700001,-3.20625,-60.056252
1782300374070,0.306281,1.258625,9.893029,-0.08992,0.023602,0.154257,8.700001,-3.20625,-60.056252
1782300374079,0.270389,1.265803,10.084454,-0.06854,0.007719,0.151814,7.96875,-2.45625,-61.106251
1782300374090,0.253639,1.299303,10.237595,-0.02578,0.00161,0.147538,8.118751,-2.30625,-61.256252
1782300374095,0.227318,1.39023,10.239988,0.033474,0.007108,0.14204,8.118751,-2.30625,-61.256252
1782300374098,0.227318,1.39023,10.239988,0.033474,0.007108,0.14204,8.118751,-3.05625,-60.975002
1782300374104,0.189033,1.51705,10.074883,0.092728,0.021158,0.138375,8.118751,-3.05625,-60.975002
1782300374109,0.189033,1.51705,10.074883,0.092728,0.021158,0.138375,6.54375,-2.00625,-59.887501
1782300374112,0.172283,1.641476,9.794922,0.132434,0.039484,0.136542,6.54375,-2.00625,-59.887501
1782300374118,0.172283,1.641476,9.794922,0.132434,0.039484,0.136542,7.6125,-3.05625,-59.456253
1782300374121,0.165105,1.76351,9.49582,0.14343,0.057199,0.13532,7.6125,-3.05625,-59.456253
1782300374128,0.165105,1.76351,9.49582,0.14343,0.057199,0.13532,7.29375,-2.75625,-58.687504
1782300374129,0.165105,1.76351,9.49582,0.127548,0.063919,0.137153,7.29375,-2.75625,-58.687504
1782300374130,0.102891,1.852045,9.285251,0.127548,0.063919,0.137153,7.29375,-2.75625,-58.687504
1782300374139,0.102891,1.852045,9.285251,0.091507,0.074914,0.141429,7.29375,-2.75625,-58.687504
1782300374140,0.047856,1.926222,9.251751,0.091507,0.074914,0.141429,7.29375,-2.75625,-58.687504
1782300374141,0.047856,1.926222,9.251751,0.091507,0.074914,0.141429,8.4375,-4.0875,-60.525002
1782300374147,0.002393,1.990828,9.318751,0.045081,0.077358,0.143873,8.4375,-4.0875,-60.525002
1782300374148,0.002393,1.990828,9.318751,0.045081,0.077358,0.143873,9.1875,-2.325,-62.025002
1782300374156,-0.038285,2.012364,9.388143,0.000488,0.081023,0.146316,9.1875,-2.325,-62.025002
1782300374159,-0.038285,2.012364,9.388143,0.000488,0.081023,0.146316,7.2,-3.1875,-60.056252
1782300374164,-0.078963,2.019542,9.424035,-0.039829,0.07919,0.14937,7.2,-3.1875,-60.056252
1782300374169,-0.078963,2.019542,9.424035,-0.039829,0.07919,0.14937,7.4625,-2.90625,-59.306252
1782300374172,-0.181855,1.974079,9.569997,-0.072205,0.060253,0.151814,7.4625,-2.90625,-59.306252
1782300374178,-0.181855,1.974079,9.569997,-0.072205,0.060253,0.151814,7.89375,-1.425,-60.337502
1782300374181,-0.200997,1.942972,9.689639,-0.095418,0.042538,0.158533,7.89375,-1.425,-60.337502
1782300374190,-0.215354,1.844866,9.818851,-0.120464,0.021769,0.16342,7.5,-2.15625,-61.406254
1782300374199,-0.215354,1.844866,9.818851,-0.144287,0.006497,0.167696,7.5,-2.15625,-61.406254
1782300374200,-0.167498,1.706083,9.912171,-0.144287,0.006497,0.167696,8.325001,-1.29375,-59.437504
1782300374207,-0.122034,1.612762,10.024634,-0.1675,0.000389,0.173194,8.325001,-1.29375,-59.437504
1782300374208,-0.122034,1.612762,10.024634,-0.1675,0.000389,0.173194,9.31875,-4.25625,-59.606251
1782300374216,-0.055035,1.536192,10.134703,-0.18827,0.007719,0.179303,9.31875,-4.25625,-59.606251
1782300374218,-0.055035,1.536192,10.134703,-0.18827,0.007719,0.179303,7.0875,-3.76875,-60.975002
1782300374224,0.011964,1.5003,10.177774,-0.201098,0.023602,0.187244,7.0875,-3.76875,-60.975002
1782300374230,0.011964,1.5003,10.177774,-0.201098,0.023602,0.187244,7.4625,-1.875,-60.356251
1782300374233,0.050249,1.485943,10.172988,-0.205374,0.046204,0.195796,7.4625,-1.875,-60.356251
1782300374239,0.050249,1.485943,10.172988,-0.205374,0.046204,0.195796,8.868751,-2.75625,-60.956253
1782300374241,0.066999,1.4668,10.079669,-0.20293,0.063919,0.203737,8.868751,-2.75625,-60.956253
1782300374249,0.066999,1.4668,10.079669,-0.20293,0.063919,0.203737,9.58125,-2.04375,-60.506252
1782300374250,0.090927,1.457229,9.971991,-0.194378,0.068806,0.209846,9.58125,-2.04375,-60.506252
1782300374259,0.119641,1.478764,9.859529,-0.185215,0.067584,0.210457,8.8125,-2.04375,-59.887501
1782300374267,0.09332,1.562513,9.766209,-0.165057,0.056588,0.204959,8.8125,-2.04375,-59.887501
1782300374268,0.09332,1.562513,9.766209,-0.165057,0.056588,0.204959,8.0625,-1.275,-60.956253
1782300374275,0.09332,1.562513,9.766209,-0.131459,0.040095,0.195185,8.0625,-1.275,-60.956253
1782300374276,0.064606,1.646262,9.63939,-0.131459,0.040095,0.195185,8.0625,-1.275,-60.956253
1782300374278,0.064606,1.646262,9.63939,-0.131459,0.040095,0.195185,8.64375,-2.19375,-59.287502
1782300374284,0.038285,1.749153,9.435999,-0.085644,0.021158,0.182357,8.64375,-2.19375,-59.287502
1782300374289,0.038285,1.749153,9.435999,-0.085644,0.021158,0.182357,8.85,-3.35625,-59.906254
1782300374299,-0.009571,1.820938,9.179967,-0.04716,-0.012439,0.165864,8.85,-3.35625,-59.906254
1782300374300,-0.009571,1.820938,9.179967,-0.04716,-0.012439,0.165864,8.231251,-2.45625,-60.356251
1782300374301,-0.01675,1.90708,9.007684,-0.020893,-0.057643,0.146316,8.231251,-2.45625,-60.356251
1782300374308,-0.01675,1.90708,9.007684,-0.020893,-0.057643,0.146316,8.137501,-1.14375,-58.818752
1782300374310,0.019143,1.998007,8.938292,-0.009286,-0.099182,0.12799,8.137501,-1.14375,-58.818752
1782300374319,0.090927,2.072184,8.907185,-0.004399,-0.119341,0.11394,9.637501,-3.075,-60.975002
1782300374327,0.189033,2.074577,8.91915,-0.008675,-0.123006,0.101723,9.637501,-3.075,-60.975002
1782300374328,0.189033,2.074577,8.91915,-0.008675,-0.123006,0.101723,9.637501,-3.075,-60.975002
1782300374336,0.236889,2.067399,9.053148,-0.015395,-0.131558,0.091338,9.637501,-3.075,-60.975002
1782300374338,0.236889,2.067399,9.053148,-0.015395,-0.131558,0.091338,8.4375,-3.05625,-61.275002
1782300374344,0.267996,2.050649,9.227824,-0.020282,-0.143164,0.08584,8.4375,-3.05625,-61.275002
1782300374349,0.267996,2.050649,9.227824,-0.020282,-0.143164,0.08584,9.1125,-1.29375,-60.487503
1782300374353,0.325424,2.065006,9.397714,-0.017838,-0.145608,0.084008,9.1125,-1.29375,-60.487503
1782300374359,0.325424,2.065006,9.397714,-0.017838,-0.145608,0.084008,7.1625,-2.45625,-59.587502
1782300374361,0.344566,2.065006,9.447963,-0.005621,-0.129115,0.08523,7.1625,-2.45625,-59.587502
1782300374368,0.344566,2.065006,9.447963,-0.005621,-0.129115,0.08523,7.14375,-1.85625,-60.037502
1782300374370,0.332602,2.065006,9.447963,0.009651,-0.093074,0.089506,7.14375,-1.85625,-60.037502
1782300374379,0.332602,2.065006,9.447963,0.022479,-0.052146,0.094392,7.14375,-1.85625,-60.037502
1782300374380,0.311067,2.065006,9.383358,0.022479,-0.052146,0.094392,6.7125,-2.90625,-59.306252
1782300374387,0.272782,2.057827,9.313965,0.026144,-0.016105,0.101112,6.7125,-2.90625,-59.306252
1782300374388,0.272782,2.057827,9.313965,0.026144,-0.016105,0.101112,9.150001,-2.775,-60.506252
1782300374399,0.239282,2.06022,9.270895,0.020035,0.013217,0.107832,8.83125,-2.325,-60.206253
1782300374404,0.210568,2.057827,9.3355,0.005985,0.046204,0.114551,8.83125,-2.325,-60.206253
1782300374409,0.210568,2.057827,9.3355,0.005985,0.046204,0.114551,8.700001,-3.20625,-60.056252
1782300374413,0.189033,2.026721,9.459927,-0.012951,0.076136,0.12066,8.700001,-3.20625,-60.056252
1782300374419,0.189033,2.026721,9.459927,-0.012951,0.076136,0.12066,7.9125,-1.875,-60.356251
1782300374421,0.189033,2.026721,9.459927,-0.035553,0.104847,0.123103,7.9125,-1.875,-60.356251
1782300374422,0.143569,2.009971,9.634603,-0.035553,0.104847,0.123103,7.9125,-1.875,-60.356251
1782300374428,0.143569,2.009971,9.634603,-0.035553,0.104847,0.123103,8.212501,-2.475,-59.587502
1782300374430,0.043071,1.998007,9.79253,-0.056934,0.126227,0.122492,8.212501,-2.475,-59.587502
1782300374440,-0.019143,2.009971,9.890635,-0.07587,0.12867,0.121881,8.231251,-2.175,-60.356251
1782300374447,-0.064606,2.005185,9.919349,-0.085644,0.119507,0.12066,8.231251,-2.175,-60.356251
1782300374449,-0.064606,2.005185,9.919349,-0.085644,0.119507,0.12066,9.88125,-1.59375,-60.506252
1782300374456,-0.057428,2.012364,9.921742,-0.08259,0.104847,0.120049,9.88125,-1.59375,-60.506252
1782300374459,-0.057428,2.012364,9.921742,-0.08259,0.104847,0.120049,8.08125,-0.54375,-62.006252
1782300374464,-0.057428,2.012364,9.921742,-0.063042,0.096905,0.115162,8.08125,-0.54375,-62.006252
1782300374465,-0.112463,2.026721,9.876278,-0.063042,0.096905,0.115162,8.08125,-0.54375,-62.006252
1782300374470,-0.112463,2.026721,9.876278,-0.063042,0.096905,0.115162,9.28125,-2.925,-59.606251
1782300374473,-0.148355,2.053042,9.768602,-0.030666,0.090186,0.110886,9.28125,-2.925,-59.606251
1782300374479,-0.148355,2.053042,9.768602,-0.030666,0.090186,0.110886,5.94375,-1.85625,-60.037502
1782300374481,-0.148355,2.053042,9.768602,0.009651,0.079801,0.104777,5.94375,-1.85625,-60.037502
1782300374482,-0.174676,2.081756,9.620246,0.009651,0.079801,0.104777,5.94375,-1.85625,-60.037502
1782300374489,-0.174676,2.081756,9.620246,0.009651,0.079801,0.104777,9.731251,-2.49375,-60.056252
1782300374491,-0.165105,2.11047,9.455142,0.046303,0.06453,0.095614,9.731251,-2.49375,-60.056252
1782300374500,-0.153141,2.160719,9.287644,0.078067,0.044982,0.08523,8.8125,-1.59375,-60.187504
1782300374508,-0.141177,2.210968,9.194324,0.102502,0.032765,0.07179,8.0625,-1.575,-60.506252
1782300374516,-0.12682,2.227718,9.132111,0.117163,0.027267,0.05713,8.0625,-1.575,-60.506252
1782300374518,-0.12682,2.227718,9.132111,0.117163,0.027267,0.05713,7.6125,-3.05625,-59.156254
1782300374525,-0.098106,2.275574,9.093826,0.119606,0.027267,0.038804,7.6125,-3.05625,-59.156254
1782300374529,-0.098106,2.275574,9.093826,0.119606,0.027267,0.038804,10.837501,-2.19375,-61.406254
1782300374533,-0.07657,2.311467,9.098611,0.111665,0.014439,0.021089,10.837501,-2.19375,-61.406254
1782300374539,-0.07657,2.311467,9.098611,0.111665,0.014439,0.021089,9.01875,-3.20625,-60.356251
1782300374541,-0.047856,2.388037,9.16561,0.097615,-0.002666,0.003374,9.01875,-3.20625,-60.356251
1782300374548,-0.047856,2.388037,9.16561,0.097615,-0.002666,0.003374,8.90625,-1.89375,-58.218754
1782300374550,0.0,2.435894,9.249359,0.088452,-0.0271,-0.011287,8.90625,-1.89375,-58.218754
1782300374559,0.055035,2.452643,9.294822,0.086009,-0.046648,-0.022283,9.20625,-2.75625,-61.725002
1782300374567,0.055035,2.452643,9.294822,0.090896,-0.063752,-0.032667,9.20625,-2.75625,-61.725002
1782300374568,0.133998,2.438286,9.392929,0.090896,-0.063752,-0.032667,9.13125,-2.775,-59.456253
1782300374576,0.193819,2.445465,9.47907,0.100669,-0.075359,-0.041219,9.13125,-2.775,-59.456253
1782300374578,0.193819,2.445465,9.47907,0.100669,-0.075359,-0.041219,9.95625,-3.05625,-61.725002
1782300374585,0.227318,2.45025,9.596319,0.111665,-0.07658,-0.047939,9.95625,-3.05625,-61.725002
1782300374589,0.227318,2.45025,9.596319,0.111665,-0.07658,-0.047939,9.731251,-3.225,-59.306252
1782300374593,0.222533,2.481357,9.725531,0.116552,-0.07658,-0.050382,9.731251,-3.225,-59.306252
1782300374599,0.222533,2.481357,9.725531,0.116552,-0.07658,-0.050382,8.887501,-4.0875,-60.225002
1782300374608,0.227318,2.498107,9.833208,0.109832,-0.066806,-0.050382,8.700001,-2.90625,-60.356251
1782300374610,0.239282,2.471786,9.969598,0.091507,-0.053978,-0.045496,8.700001,-2.90625,-60.356251
1782300374619,0.239282,2.471786,9.969598,0.059742,-0.037485,-0.038165,8.700001,-2.90625,-60.356251
1782300374620,0.265603,2.416751,10.187345,0.059742,-0.037485,-0.038165,10.856251,-2.19375,-62.175003
1782300374627,0.181855,2.402394,10.395521,0.025533,-0.012439,-0.02778,10.856251,-2.19375,-62.175003
1782300374628,0.181855,2.402394,10.395521,0.025533,-0.012439,-0.02778,7.6125,-3.80625,-58.706253
1782300374636,0.165105,2.335395,10.622839,0.001099,-0.000833,-0.016174,7.6125,-3.80625,-58.706253
1782300374638,0.165105,2.335395,10.622839,0.001099,-0.000833,-0.016174,8.868751,-3.05625,-60.506252
1782300374644,0.165105,2.335395,10.622839,-0.006843,0.004054,-0.005789,8.868751,-3.05625,-60.506252
1782300374645,0.07657,2.239682,10.888443,-0.006843,0.004054,-0.005789,8.868751,-3.05625,-60.506252
1782300374650,0.07657,2.239682,10.888443,-0.006843,0.004054,-0.005789,8.681251,-2.925,-59.606251
1782300374653,0.028714,2.120041,11.058333,0.005985,0.009552,0.004595,8.681251,-2.925,-59.606251
1782300374659,0.028714,2.120041,11.058333,0.005985,0.009552,0.004595,9.9375,-4.85625,-59.475002
1782300374661,0.028714,2.120041,11.058333,0.03775,0.012606,0.013147,9.9375,-4.85625,-59.475002
1782300374662,0.035892,2.043471,11.151653,0.03775,0.012606,0.013147,9.9375,-4.85625,-59.475002
1782300374668,0.035892,2.043471,11.151653,0.03775,0.012606,0.013147,7.93125,-3.20625,-59.606251
1782300374670,0.023928,1.959722,11.154046,0.080511,0.019326,0.018645,7.93125,-3.20625,-59.606251
1782300374679,0.023928,1.959722,11.154046,0.133045,0.026656,0.024143,7.93125,-3.20625,-59.606251
1782300374680,-0.004786,1.864009,11.12294,0.133045,0.026656,0.024143,9.618751,-3.80625,-59.906254
1782300374689,-0.014357,1.739582,11.137296,0.189856,0.037651,0.028419,10.5375,-2.49375,-61.106251
1782300374696,0.014357,1.624727,11.163617,0.239336,0.052923,0.027197,10.5375,-2.49375,-61.106251
1782300374699,0.014357,1.624727,11.163617,0.239336,0.052923,0.027197,10.05,-3.225,-59.606251
1782300374707,0.0,1.512264,11.209081,0.276599,0.062697,0.019867,10.05,-3.225,-59.606251
1782300374713,0.0,1.512264,11.209081,0.276599,0.062697,0.019867,8.90625,-3.7875,-61.275002
1782300374714,0.050249,1.433301,11.268901,0.297368,0.060864,0.010704,8.90625,-3.7875,-61.275002
1782300374719,0.050249,1.433301,11.268901,0.297368,0.060864,0.010704,9.0375,-3.95625,-60.075001
1782300374722,0.131605,1.385444,11.249759,0.302255,0.061475,-0.005789,9.0375,-3.95625,-60.075001
1782300374728,0.131605,1.385444,11.249759,0.302255,0.061475,-0.005789,9.975,-4.8375,-60.525002
1782300374730,0.157926,1.395016,11.175581,0.296757,0.059643,-0.030224,9.975,-4.8375,-60.525002
1782300374739,0.157926,1.395016,11.175581,0.290038,0.044982,-0.057713,9.975,-4.8375,-60.525002
1782300374740,0.150748,1.459622,11.015262,0.290038,0.044982,-0.057713,8.71875,-4.9875,-58.556252
1782300374749,0.129212,1.536192,10.732909,0.280264,0.025434,-0.086423,7.65,-5.26875,-58.406254
1782300374756,0.129212,1.600798,10.417057,0.26377,0.003443,-0.112691,7.65,-5.26875,-58.406254
1782300374758,0.129212,1.600798,10.417057,0.26377,0.003443,-0.112691,9.9375,-4.85625,-59.475002
1782300374765,0.129212,1.615155,10.110775,0.229562,-0.021602,-0.137736,9.9375,-4.85625,-59.475002
1782300374769,0.129212,1.615155,10.110775,0.229562,-0.021602,-0.137736,9.975,-3.24375,-57.487503
1782300374774,0.071785,1.59362,9.991134,0.178249,-0.041761,-0.162782,9.975,-3.24375,-57.487503
1782300374780,0.071785,1.59362,9.991134,0.178249,-0.041761,-0.162782,11.025001,-4.85625,-59.925003
1782300374782,0.177069,1.607977,9.976778,0.111054,-0.04787,-0.185384,11.025001,-4.85625,-59.925003
1782300374789,0.177069,1.607977,9.976778,0.111054,-0.04787,-0.185384,8.775001,-5.41875,-60.375004
1782300374791,0.179462,1.445265,10.16581,0.027977,-0.039317,-0.209207,8.775001,-5.41875,-60.375004
1782300374799,0.179462,1.445265,10.16581,-0.06121,-0.007553,-0.217759,8.775001,-5.41875,-60.375004
1782300374800,0.100499,1.447658,10.168203,-0.06121,-0.007553,-0.217759,8.775001,-5.41875,-60.375004
1782300374811,0.234497,1.253839,10.469698,-0.140011,-0.017937,-0.238529,9.618751,-5.30625,-58.406254
1782300374816,0.263211,1.095913,10.766408,-0.210872,0.010163,-0.252579,9.618751,-5.30625,-58.406254
1782300374818,0.263211,1.095913,10.766408,-0.210872,0.010163,-0.252579,11.94375,-4.275,-60.825001
1782300374825,0.229711,0.949951,10.948263,-0.256686,0.026045,-0.25319,11.94375,-4.275,-60.825001
1782300374829,0.229711,0.949951,10.948263,-0.256686,0.026045,-0.25319,10.2375,-4.85625,-59.156254
1782300374833,0.282353,0.727418,11.106189,-0.283564,0.034597,-0.244027,10.2375,-4.85625,-59.156254
1782300374839,0.282353,0.727418,11.106189,-0.283564,0.034597,-0.244027,11.306251,-4.725,-59.625004
1782300374842,0.311067,0.519243,11.249759,-0.298836,0.054756,-0.229977,11.306251,-4.725,-59.625004
1782300374849,0.311067,0.519243,11.249759,-0.298836,0.054756,-0.229977,10.51875,-3.975,-59.306252
1782300374850,0.342174,0.397209,11.388543,-0.279899,0.084077,-0.215927,10.51875,-3.975,-59.306252
1782300374860,0.358923,0.392423,11.343079,-0.214537,0.133557,-0.201266,9.8625,-4.125,-57.937504
1782300374869,0.33021,0.514457,11.003298,-0.122296,0.190979,-0.185994,11.212501,-3.2625,-58.237503
1782300374876,0.265603,0.696311,10.450556,-0.024558,0.228241,-0.17561,11.212501,-3.2625,-58.237503
1782300374879,0.265603,0.696311,10.450556,-0.024558,0.228241,-0.17561,12.675,-5.025,-59.625004
1782300374885,0.167498,0.863809,9.837993,0.057298,0.209304,-0.166447,12.675,-5.025,-59.625004
1782300374889,0.167498,0.863809,9.837993,0.057298,0.209304,-0.166447,11.75625,-4.125,-60.225002
1782300374893,0.119641,1.014557,9.333107,0.114719,0.143331,-0.159116,11.75625,-4.125,-60.225002
1782300374899,0.119641,1.014557,9.333107,0.114719,0.143331,-0.159116,12.4875,-4.59375,-58.706253
1782300374902,0.09332,1.107877,8.947863,0.142819,0.058421,-0.155451,12.4875,-4.59375,-58.706253
1782300374911,0.105284,1.198804,8.727724,0.145873,-0.04115,-0.158506,10.931251,-2.79375,-59.456253
1782300374919,0.105284,1.198804,8.727724,0.125104,-0.126671,-0.164614,10.931251,-2.79375,-59.456253
1782300374920,0.155533,1.277767,8.581762,0.125104,-0.126671,-0.164614,12.356251,-3.69375,-60.375004
1782300374929,0.208176,1.354338,8.51237,0.08662,-0.187147,-0.167058,12.637501,-4.74375,-58.556252
1782300374936,0.33021,1.409373,8.521941,0.040194,-0.212803,-0.167058,12.637501,-4.74375,-58.556252
1782300374939,0.33021,1.409373,8.521941,0.040194,-0.212803,-0.167058,13.087501,-3.7125,-59.606251
1782300374945,0.468993,1.411765,8.517155,-0.012341,-0.198753,-0.162782,13.087501,-3.7125,-59.606251
1782300374949,0.468993,1.411765,8.517155,-0.012341,-0.198753,-0.162782,10.51875,-3.675,-59.606251
1782300374954,0.538385,1.414158,8.531512,-0.048992,-0.151106,-0.156673,10.51875,-3.675,-59.606251
1782300374959,0.538385,1.414158,8.531512,-0.048992,-0.151106,-0.156673,10.950001,-4.14375,-58.406254
1782300374962,0.586242,1.339981,8.505191,-0.072205,-0.103458,-0.146899,10.950001,-4.14375,-58.406254
1782300374968,0.586242,1.339981,8.505191,-0.072205,-0.103458,-0.146899,10.931251,-3.09375,-59.137501
1782300374971,0.658026,1.253839,8.462121,-0.079536,-0.044204,-0.136514,10.931251,-3.09375,-59.137501
1782300374980,0.588634,1.088734,8.526726,-0.076481,0.012606,-0.134071,10.6125,-3.39375,-58.387501
1782300374989,0.653241,1.002593,8.610475,-0.06854,0.059032,-0.127351,12.1125,-3.1125,-58.387501
1782300374997,0.650848,0.904487,8.825829,-0.059377,0.082245,-0.129184,12.1125,-3.1125,-58.387501
1782300374998,0.650848,0.904487,8.825829,-0.059377,0.082245,-0.129184,11.325001,-2.38125,-57.918751
1782300375005,0.701097,0.952343,9.069897,-0.049603,0.085299,-0.138347,11.325001,-2.38125,-57.918751
1782300375011,0.701097,0.952343,9.069897,-0.049603,0.085299,-0.138347,10.9125,-3.09375,-58.687504
1782300375013,0.701097,0.952343,9.069897,-0.042273,0.073693,-0.146899,10.9125,-3.09375,-58.687504
1782300375014,0.492921,0.782453,9.273287,-0.042273,0.073693,-0.146899,10.9125,-3.09375,-58.687504
1782300375019,0.492921,0.782453,9.273287,-0.042273,0.073693,-0.146899,11.55,-3.24375,-59.306252
1782300375022,0.509671,0.847059,9.261323,-0.036164,0.049869,-0.116967,11.55,-3.24375,-59.306252
1782300375028,0.509671,0.847059,9.261323,-0.036164,0.049869,-0.116967,10.59375,-2.8125,-58.387501
1782300375030,0.55992,1.071985,9.208681,-0.030666,-0.005109,-0.110247,10.59375,-2.8125,-58.387501
1782300375040,0.478565,1.141376,9.10579,-0.024558,-0.031987,-0.10536,11.19375,-1.93125,-58.837502
1782300375049,0.478565,1.141376,9.10579,-0.016006,-0.027711,-0.082758,11.19375,-1.93125,-58.837502
1782300375050,0.471386,1.239482,8.895221,-0.016006,-0.027711,-0.082758,10.5,-3.675,-58.856251
1782300375056,0.471386,1.239482,8.895221,-0.007454,-0.003887,-0.063821,10.5,-3.675,-58.856251
1782300375057,0.457029,1.304088,8.684653,-0.007454,-0.003887,-0.063821,10.5,-3.675,-58.856251
1782300375058,0.457029,1.304088,8.684653,-0.007454,-0.003887,-0.063821,12.543751,-1.5,-58.818752
1782300375065,0.425922,1.375873,8.498013,0.000488,0.037041,-0.049161,12.543751,-1.5,-58.818752
1782300375069,0.425922,1.375873,8.498013,0.000488,0.037041,-0.049161,12.450001,-3.8625,-58.387501
1782300375074,0.356531,1.454836,8.383157,0.010261,0.069416,-0.036943,12.450001,-3.8625,-58.387501
1782300375079,0.356531,1.454836,8.383157,0.010261,0.069416,-0.036943,11.475,-1.93125,-58.218754
1782300375082,0.256032,1.526621,8.359229,0.020646,0.093851,-0.02717,11.475,-1.93125,-58.218754
1782300375088,0.256032,1.526621,8.359229,0.020646,0.093851,-0.02717,11.53125,-3.69375,-58.237503
1782300375091,0.174676,1.596013,8.318551,0.026144,0.101792,-0.022283,11.53125,-3.69375,-58.237503
1782300375100,0.078963,1.631905,8.289837,0.02309,0.090797,-0.018617,13.031251,-2.98125,-58.837502
1782300375109,0.047856,1.696511,8.313765,0.017592,0.074914,-0.015563,13.031251,-2.98125,-58.837502
1782300375119,0.004786,1.674976,8.335301,0.018203,0.060253,-0.01312,13.8,-2.98125,-58.837502
1782300375125,0.026321,1.655833,8.354443,0.026755,0.057199,-0.007622,13.8,-2.98125,-58.837502
1782300375128,0.026321,1.655833,8.354443,0.026755,0.057199,-0.007622,13.51875,-3.43125,-59.456253
1782300375134,0.045464,1.641476,8.371193,0.033474,0.063919,-0.004568,13.51875,-3.43125,-59.456253
1782300375139,0.045464,1.641476,8.371193,0.033474,0.063919,-0.004568,12.150001,-4.59375,-57.937504
1782300375142,0.064606,1.624727,8.440585,0.03714,0.082245,-0.002124,12.150001,-4.59375,-57.937504
1782300375148,0.064606,1.624727,8.440585,0.03714,0.082245,-0.002124,12.58125,-3.7125,-57.787502
1782300375151,0.119641,1.639084,8.567404,0.039583,0.104847,-0.002124,12.58125,-3.7125,-57.787502
1782300375158,0.119641,1.639084,8.567404,0.039583,0.104847,-0.002124,13.33125,-2.98125,-58.537502
1782300375159,0.162712,1.636691,8.785151,0.041416,0.124394,-0.005789,13.33125,-2.98125,-58.537502
1782300375169,0.174676,1.651048,8.955041,0.041416,0.139055,-0.010065,12.375001,-3.13125,-56.868752
1782300375176,0.174676,1.684547,9.117754,0.043248,0.139055,-0.014341,12.375001,-3.13125,-56.868752
1782300375179,0.174676,1.684547,9.117754,0.043248,0.139055,-0.014341,14.26875,-3.13125,-59.456253
1782300375185,0.177069,1.684547,9.297216,0.043859,0.12134,-0.018007,14.26875,-3.13125,-59.456253
1782300375188,0.177069,1.684547,9.297216,0.043859,0.12134,-0.018007,14.962501,-1.6875,-58.668751
1782300375194,0.217747,1.701297,9.488641,0.0518,0.09996,-0.019839,14.962501,-1.6875,-58.668751
1782300375199,0.217747,1.701297,9.488641,0.0518,0.09996,-0.019839,15.69375,-2.4375,-57.618752
1782300375202,0.260818,1.720439,9.610675,0.07257,0.081023,-0.02045,15.69375,-2.4375,-57.618752
1782300375208,0.260818,1.720439,9.610675,0.07257,0.081023,-0.02045,14.250001,-3.15,-58.687504
1782300375211,0.327817,1.756332,9.668103,0.103724,0.072471,-0.021061,14.250001,-3.15,-58.687504
1782300375219,0.361316,1.768296,9.713566,0.137321,0.052312,-0.016785,13.875001,-2.11875,-57.318752
1782300375229,0.358923,1.737189,9.737495,0.170308,0.04376,-0.011898,14.6625,-3.15,-57.637501
1782300375237,0.346959,1.744368,9.830815,0.196575,0.026045,-0.009455,14.6625,-3.15,-57.637501
1782300375238,0.346959,1.744368,9.830815,0.196575,0.026045,-0.009455,14.250001,-3.43125,-58.387501
1782300375245,0.31346,1.787439,10.019848,0.218566,0.013217,-0.007622,14.250001,-3.43125,-58.387501
1782300375248,0.31346,1.787439,10.019848,0.218566,0.013217,-0.007622,14.1,-4.33125,-57.787502
1782300375254,0.241675,1.871187,10.146668,0.240558,0.008941,-0.005178,14.1,-4.33125,-57.787502
1782300375259,0.241675,1.871187,10.146668,0.240558,0.008941,-0.005178,13.462501,-3.43125,-57.637501
1782300375262,0.241675,1.871187,10.146668,0.27049,0.013217,-0.000902,13.462501,-3.43125,-57.637501
1782300375263,0.244068,1.954936,10.196917,0.27049,0.013217,-0.000902,13.462501,-3.43125,-57.637501
1782300375268,0.244068,1.954936,10.196917,0.27049,0.013217,-0.000902,13.462501,-3.43125,-57.637501
1782300375271,0.234497,1.988436,10.046169,0.296146,0.017493,0.004595,13.462501,-3.43125,-57.637501
1782300375278,0.234497,1.988436,10.046169,0.296146,0.017493,0.004595,12.918751,-5.34375,-57.356251
1782300375280,0.224925,1.978864,9.981563,0.31264,0.007719,0.015591,12.918751,-5.34375,-57.356251
1782300375289,0.239282,1.935794,10.086847,0.31325,-0.000222,0.026587,12.918751,-5.34375,-57.356251
1782300375290,0.239282,1.935794,10.086847,0.31325,-0.000222,0.026587,15.168751,-5.53125,-57.037502
1782300375297,0.272782,1.864009,10.323737,0.309585,0.00161,0.040636,15.168751,-5.53125,-57.037502
1782300375299,0.272782,1.864009,10.323737,0.309585,0.00161,0.040636,15.168751,-5.53125,-57.037502
1782300375305,0.244068,1.782653,10.570198,0.30592,0.00833,0.055908,15.168751,-5.53125,-57.037502
1782300375308,0.244068,1.782653,10.570198,0.30592,0.00833,0.055908,14.718751,-4.93125,-57.637501
1782300375314,0.263211,1.68694,10.833408,0.297979,0.01566,0.076677,14.718751,-4.93125,-57.637501
1782300375322,0.263211,1.68694,10.833408,0.297979,0.01566,0.076677,15.76875,-4.93125,-57.337502
1782300375323,0.29671,1.600798,11.154046,0.289427,0.024212,0.098669,15.76875,-4.93125,-57.337502
1782300375328,0.29671,1.600798,11.154046,0.289427,0.024212,0.098669,15.431251,-4.95,-56.137501
1782300375331,0.320638,1.519442,11.489041,0.297368,0.030321,0.122492,15.431251,-4.95,-56.137501
1782300375339,0.320638,1.519442,11.489041,0.330355,0.048036,0.145705,15.7875,-5.38125,-57.656254
1782300375340,0.356531,1.533799,11.680467,0.330355,0.048036,0.145705,15.7875,-5.38125,-57.656254
1782300375350,0.320638,1.619941,11.551255,0.384722,0.077969,0.164642,14.64375,-7.275,-57.825001
1782300375357,0.241675,1.749153,11.144475,0.434813,0.095684,0.181746,14.64375,-7.275,-57.825001
1782300375359,0.241675,1.749153,11.144475,0.434813,0.095684,0.181746,15.093751,-7.14375,-57.675003
1782300375366,0.148355,1.835295,10.742481,0.448252,0.092018,0.201294,15.093751,-7.14375,-57.675003
1782300375368,0.148355,1.835295,10.742481,0.448252,0.092018,0.201294,15.056251,-7.14375,-56.606251
1782300375374,0.074178,1.878366,10.517555,0.417097,0.083466,0.225118,15.056251,-7.14375,-56.606251
1782300375380,0.074178,1.878366,10.517555,0.417097,0.083466,0.225118,14.306251,-5.94375,-57.656254
1782300375383,-0.066999,1.90708,10.541483,0.360898,0.07919,0.249552,14.306251,-5.94375,-57.656254
1782300375388,-0.066999,1.90708,10.541483,0.360898,0.07919,0.249552,15.056251,-7.74375,-56.156254
1782300375391,-0.248854,2.048256,10.653945,0.300422,0.092018,0.272154,15.056251,-7.74375,-56.156254
1782300375399,-0.248854,2.048256,10.653945,0.300422,0.092018,0.272154,15.50625,-7.74375,-55.856251
1782300375400,-0.421137,2.215754,10.677874,0.247888,0.11401,0.284982,15.50625,-7.74375,-55.856251
1782300375410,-0.540778,2.285146,10.58934,0.195964,0.131725,0.295367,15.843751,-8.19375,-56.606251
1782300375417,-0.595813,2.208575,10.460127,0.131824,0.137833,0.306973,15.843751,-8.19375,-56.606251
1782300375418,-0.595813,2.208575,10.460127,0.131824,0.137833,0.306973,15.01875,-5.9625,-56.587502
1782300375431,-0.61017,2.002793,10.409878,0.043859,0.128059,0.31858,14.2875,-7.44375,-55.856251
1782300375434,-0.605384,1.663012,10.603696,-0.066707,0.090797,0.31858,14.2875,-7.44375,-55.856251
1782300375439,-0.605384,1.663012,10.603696,-0.066707,0.090797,0.31858,17.362501,-7.4625,-57.375004
1782300375443,-0.602991,1.284946,10.953049,-0.189491,0.019936,0.305141,17.362501,-7.4625,-57.375004
1782300375449,-0.602991,1.284946,10.953049,-0.189491,0.019936,0.305141,15.656251,-6.5625,-56.756252
1782300375451,-0.533599,0.949951,11.436399,-0.293949,-0.066196,0.279485,15.656251,-6.5625,-56.756252
1782300375458,-0.533599,0.949951,11.436399,-0.293949,-0.066196,0.279485,16.63125,-8.925,-56.625004
1782300375460,-0.421137,0.629312,11.847965,-0.352592,-0.12606,0.249552,16.63125,-8.925,-56.625004
1782300375469,-0.421137,0.629312,11.847965,-0.352592,-0.12606,0.249552,16.06875,-5.68125,-56.587502
1782300375470,-0.320638,0.370888,11.96282,-0.351981,-0.148051,0.220231,16.06875,-5.68125,-56.587502
1782300375477,-0.320638,0.370888,11.96282,-0.307999,-0.143775,0.197629,16.06875,-5.68125,-56.587502
1782300375478,-0.239282,0.256032,11.702002,-0.307999,-0.143775,0.197629,16.725,-6.88125,-56.756252
1782300375486,-0.193819,0.311067,11.192331,-0.238971,-0.135834,0.181746,16.725,-6.88125,-56.756252
1782300375488,-0.193819,0.311067,11.192331,-0.238971,-0.135834,0.181746,14.94375,-7.575,-57.525002
1782300375494,-0.200997,0.492921,10.68266,-0.154672,-0.123006,0.178081,14.94375,-7.575,-57.525002
1782300375499,-0.200997,0.492921,10.68266,-0.154672,-0.123006,0.178081,15.656251,-5.8125,-57.806252
1782300375503,-0.244068,0.717847,10.180167,-0.055712,-0.099182,0.185411,15.656251,-5.8125,-57.806252
1782300375508,-0.244068,0.717847,10.180167,-0.055712,-0.099182,0.185411,17.400002,-6.3,-54.918751
1782300375511,-0.31346,0.935594,9.660924,0.045692,-0.050313,0.19885,17.400002,-6.3,-54.918751
1782300375518,-0.31346,0.935594,9.660924,0.045692,-0.050313,0.19885,17.231251,-5.71875,-55.068752
1782300375520,-0.39003,1.17009,9.112968,0.12205,-0.004498,0.212289,17.231251,-5.71875,-55.068752
1782300375530,-0.488136,1.347159,8.751652,0.151371,0.022991,0.223285,14.700001,-6.7125,-55.387501
1782300375537,-0.574277,1.529014,8.665511,0.134267,0.026045,0.232448,14.700001,-6.7125,-55.387501
1782300375538,-0.574277,1.529014,8.665511,0.134267,0.026045,0.232448,17.75625,-6.58125,-56.756252
1782300375546,-0.650848,1.627119,8.694224,0.087841,0.018104,0.239167,17.75625,-6.58125,-56.756252
1782300375549,-0.650848,1.627119,8.694224,0.087841,0.018104,0.239167,15.95625,-7.3125,-56.456253
1782300375554,-0.705883,1.615155,8.687046,0.016981,-0.017937,0.245276,15.95625,-7.3125,-56.456253
1782300375559,-0.705883,1.615155,8.687046,0.016981,-0.017937,0.245276,16.387501,-6.88125,-55.987503
1782300375563,-0.705883,1.495514,8.720545,-0.072816,-0.094295,0.251996,16.387501,-6.88125,-55.987503
1782300375568,-0.705883,1.495514,8.720545,-0.072816,-0.094295,0.251996,15.0375,-7.14375,-56.156254
1782300375571,-0.679562,1.342373,8.842579,-0.165057,-0.176762,0.254439,15.0375,-7.14375,-56.156254
1782300375580,-0.648455,1.155733,9.055541,-0.242026,-0.251898,0.253828,16.050001,-6.73125,-55.087502
1782300375589,-0.535992,0.981057,9.194324,-0.284786,-0.28122,0.250163,15.937501,-5.83125,-56.737503
1782300375597,-0.392423,0.806381,9.187146,-0.300669,-0.281831,0.241,15.937501,-5.83125,-56.737503
1782300375598,-0.392423,0.806381,9.187146,-0.300669,-0.281831,0.241,15.468751,-4.93125,-57.337502
1782300375606,-0.251246,0.679562,9.122539,-0.313497,-0.283053,0.229394,15.468751,-4.93125,-57.337502
1782300375608,-0.251246,0.679562,9.122539,-0.313497,-0.283053,0.229394,15.450001,-5.38125,-56.587502
1782300375614,-0.102891,0.550349,9.172789,-0.328158,-0.28855,0.220231,15.450001,-5.38125,-56.587502
1782300375619,-0.102891,0.550349,9.172789,-0.328158,-0.28855,0.220231,16.81875,-6.43125,-55.837502
1782300375623,0.062213,0.492921,9.251751,-0.339764,-0.269003,0.215344,16.81875,-6.43125,-55.837502
1782300375628,0.062213,0.492921,9.251751,-0.339764,-0.269003,0.215344,15.468751,-5.38125,-56.887501
1782300375631,0.181855,0.478565,9.313965,-0.339764,-0.23174,0.207402,15.468751,-5.38125,-56.887501
1782300375638,0.181855,0.478565,9.313965,-0.339764,-0.23174,0.207402,15.806251,-5.98125,-57.356251
1782300375640,0.284746,0.552742,9.349858,-0.320216,-0.174929,0.200683,15.806251,-5.98125,-57.356251
1782300375649,0.342174,0.662812,9.282858,-0.277456,-0.101015,0.194574,13.9875,-5.6625,-57.356251
1782300375658,0.375673,0.789631,9.08904,-0.216369,-0.014883,0.187244,16.087502,-6.43125,-56.606251
1782300375666,0.358923,0.892523,8.789938,-0.152229,0.059643,0.175638,16.087502,-6.43125,-56.606251
1782300375668,0.358923,0.892523,8.789938,-0.152229,0.059643,0.175638,15.4125,-5.4,-55.068752
1782300375675,0.315853,1.031307,8.442977,-0.094807,0.098127,0.160977,15.4125,-5.4,-55.068752
1782300375679,0.315853,1.031307,8.442977,-0.094807,0.098127,0.160977,14.55,-5.53125,-56.437504
1782300375683,0.224925,1.177269,8.107983,-0.05449,0.102403,0.143873,14.55,-5.53125,-56.437504
1782300375688,0.224925,1.177269,8.107983,-0.05449,0.102403,0.143873,14.718751,-5.6625,-56.587502
1782300375691,0.224925,1.177269,8.107983,-0.036164,0.077969,0.126768,14.718751,-5.6625,-56.587502
1782300375692,0.138784,1.306481,7.880664,-0.036164,0.077969,0.126768,14.718751,-5.6625,-56.587502
1782300375699,0.138784,1.306481,7.880664,-0.036164,0.077969,0.126768,15.69375,-4.66875,-55.368752
1782300375700,0.105284,1.395016,7.761024,-0.038608,0.052312,0.110886,15.69375,-4.66875,-55.368752
1782300375714,0.102891,1.459622,7.763416,-0.058155,0.039484,0.096836,16.087502,-5.68125,-56.887501
1782300375717,0.102891,1.459622,7.763416,-0.085644,0.035208,0.082175,16.087502,-5.68125,-56.887501
1782300375720,0.083749,1.505085,7.813665,-0.085644,0.035208,0.082175,14.156251,-5.79375,-57.806252
1782300375729,0.105284,1.519442,7.952449,-0.108857,0.026045,0.066904,15.50625,-6.7125,-56.906254
1782300375734,0.105284,1.519442,7.952449,-0.121074,0.010163,0.048578,15.50625,-6.7125,-56.906254
1782300375735,0.124427,1.493121,8.117554,-0.121074,0.010163,0.048578,15.50625,-6.7125,-56.906254
1782300375739,0.124427,1.493121,8.117554,-0.121074,0.010163,0.048578,15.50625,-6.7125,-56.906254
1782300375743,0.117248,1.476372,8.234802,-0.121685,-0.015494,0.02903,15.50625,-6.7125,-56.906254
1782300375749,0.117248,1.476372,8.234802,-0.121685,-0.015494,0.02903,15.637501,-6.2625,-56.437504
1782300375752,0.117248,1.469193,8.313765,-0.114966,-0.04787,0.008871,15.637501,-6.2625,-56.437504
1782300375758,0.117248,1.469193,8.313765,-0.114966,-0.04787,0.008871,17.456251,-5.55,-57.806252
1782300375760,0.145962,1.495514,8.366408,-0.103359,-0.086965,-0.010676,17.456251,-5.55,-57.806252
1782300375769,0.145962,1.495514,8.366408,-0.086866,-0.118119,-0.026559,16.5,-5.4,-56.137501
1782300375770,0.179462,1.48355,8.407086,-0.086866,-0.118119,-0.026559,16.5,-5.4,-56.137501
1782300375779,0.246461,1.5003,8.490835,-0.064875,-0.130947,-0.037554,15.750001,-5.68125,-55.837502
1782300375786,0.272782,1.485943,8.579369,-0.041662,-0.138278,-0.046717,15.750001,-5.68125,-55.837502
1782300375788,0.272782,1.485943,8.579369,-0.041662,-0.138278,-0.046717,16.06875,-6.73125,-55.387501
1782300375795,0.306281,1.471586,8.620047,-0.019671,-0.138278,-0.052215,16.06875,-6.73125,-55.387501
1782300375799,0.306281,1.471586,8.620047,-0.019671,-0.138278,-0.052215,15.750001,-4.95,-56.587502
1782300375803,0.37328,1.430908,8.74208,-0.001345,-0.134002,-0.059545,15.750001,-4.95,-56.587502
1782300375809,0.37328,1.430908,8.74208,-0.001345,-0.134002,-0.059545,15.656251,-6.2625,-57.056252
1782300375812,0.411565,1.392623,8.94547,0.016981,-0.122395,-0.065654,15.656251,-6.2625,-57.056252
1782300375819,0.411565,1.392623,8.94547,0.016981,-0.122395,-0.065654,16.012501,-4.96875,-55.368752
1782300375820,0.394816,1.402194,9.160824,0.035307,-0.105291,-0.072374,16.012501,-4.96875,-55.368752
1782300375830,0.37328,1.493121,9.304394,0.060352,-0.080856,-0.080926,14.625001,-6.84375,-57.506252
1782300375839,0.303888,1.648655,9.376178,0.090285,-0.065585,-0.087034,14.1,-5.08125,-56.737503
1782300375846,0.256032,1.820938,9.280466,0.129991,-0.057033,-0.086423,14.1,-5.08125,-56.737503
1782300375849,0.256032,1.820938,9.280466,0.129991,-0.057033,-0.086423,13.931251,-4.93125,-56.587502
1782300375855,0.210568,1.928615,9.156039,0.167254,-0.04787,-0.086423,13.931251,-4.93125,-56.587502
1782300375860,0.210568,1.928615,9.156039,0.167254,-0.04787,-0.086423,15.76875,-5.38125,-56.887501
1782300375863,0.210568,1.928615,9.156039,0.184358,-0.040539,-0.085202,15.76875,-5.38125,-56.887501
1782300375864,0.200997,2.014757,8.990934,0.184358,-0.040539,-0.085202,15.76875,-5.38125,-56.887501
1782300375869,0.200997,2.014757,8.990934,0.184358,-0.040539,-0.085202,15.168751,-6.5625,-55.987503
1782300375872,0.167498,2.057827,8.969399,0.173973,-0.036874,-0.087645,15.168751,-6.5625,-55.987503
1782300375878,0.167498,2.057827,8.969399,0.173973,-0.036874,-0.087645,15.187501,-6.8625,-56.456253
1782300375880,0.167498,2.057827,8.969399,0.142819,-0.035041,-0.093143,15.187501,-6.8625,-56.456253
1782300375881,0.124427,2.103291,9.14886,0.142819,-0.035041,-0.093143,15.187501,-6.8625,-56.456253
1782300375889,0.124427,2.103291,9.14886,0.101891,-0.035041,-0.102917,15.187501,-6.8625,-56.456253
1782300375890,0.059821,2.115255,9.502998,0.101891,-0.035041,-0.102917,15.656251,-6.8625,-56.456253
1782300375899,-0.019143,2.086541,9.931313,0.06585,-0.032598,-0.115745,15.656251,-6.8625,-56.456253
1782300375900,-0.019143,2.086541,9.931313,0.06585,-0.032598,-0.115745,15.750001,-6.43125,-55.087502
1782300375906,-0.019143,2.086541,9.931313,0.042637,-0.025268,-0.128573,15.750001,-6.43125,-55.087502
1782300375907,-0.074178,2.072184,10.321344,0.042637,-0.025268,-0.128573,15.750001,-6.43125,-55.087502
1782300375908,-0.074178,2.072184,10.321344,0.042637,-0.025268,-0.128573,16.5,-6.73125,-55.087502
1782300375915,-0.074178,2.072184,10.321344,0.03775,-0.019159,-0.142012,16.5,-6.73125,-55.087502
1782300375916,-0.133998,2.057827,10.644374,0.03775,-0.019159,-0.142012,16.5,-6.73125,-55.087502
1782300375919,-0.133998,2.057827,10.644374,0.03775,-0.019159,-0.142012,15.993751,-6.8625,-57.506252
1782300375924,-0.148355,2.036292,10.809479,0.047524,0.003443,-0.157284,15.993751,-6.8625,-57.506252
1782300375929,-0.148355,2.036292,10.809479,0.047524,0.003443,-0.157284,16.6875,-7.63125,-54.937504
1782300375932,-0.162712,1.986043,10.874086,0.068905,0.029099,-0.172555,16.6875,-7.63125,-54.937504
1782300375941,-0.102891,1.895115,10.969799,0.090285,0.061475,-0.182329,15.0375,-7.14375,-56.156254
1782300375949,-0.102891,1.895115,10.969799,0.090285,0.061475,-0.182329,15.468751,-7.1625,-55.087502
1782300375950,-0.031107,1.737189,11.099011,0.110443,0.106679,-0.194547,15.468751,-7.1625,-55.087502
1782300375959,0.064606,1.588834,11.323936,0.125715,0.158603,-0.206764,15.468751,-7.1625,-55.087502
1782300375960,0.064606,1.588834,11.323936,0.125715,0.158603,-0.206764,16.875,-7.4625,-56.156254
1782300375967,0.119641,1.476372,11.594326,0.137321,0.209915,-0.21837,16.875,-7.4625,-56.156254
1782300375969,0.119641,1.476372,11.594326,0.137321,0.209915,-0.21837,15.675,-7.29375,-56.756252
1782300375975,0.119641,1.502693,11.864714,0.151371,0.256952,-0.225701,15.675,-7.29375,-56.756252
1782300375979,0.119641,1.502693,11.864714,0.151371,0.256952,-0.225701,16.368752,-6.28125,-55.687504
1782300375983,0.09332,1.660619,11.958034,0.175195,0.302156,-0.233031,16.368752,-6.28125,-55.687504
1782300375989,0.09332,1.660619,11.958034,0.175195,0.302156,-0.233031,15.76875,-7.4625,-55.087502
1782300375992,0.057428,1.902294,11.795322,0.209403,0.336975,-0.234864,15.76875,-7.4625,-55.087502
1782300375999,0.057428,1.902294,11.795322,0.209403,0.336975,-0.234864,14.75625,-7.74375,-55.856251
1782300376000,0.057428,1.902294,11.795322,0.241779,0.346749,-0.230588,14.75625,-7.74375,-55.856251
1782300376001,0.059821,2.105684,11.347865,0.241779,0.346749,-0.230588,14.75625,-7.74375,-55.856251
1782300376010,0.023928,2.20379,10.864514,0.250942,0.322925,-0.226922,14.75625,-7.74375,-55.856251
1782300376011,0.023928,2.20379,10.864514,0.250942,0.322925,-0.226922,18.056252,-9.262501,-54.037502
1782300376019,0.01675,2.273181,10.541483,0.219788,0.261228,-0.227533,17.75625,-8.08125,-54.937504
1782300376026,-0.014357,2.400001,10.467306,0.148928,0.188535,-0.238529,17.75625,-8.08125,-54.937504
1782300376028,-0.014357,2.400001,10.467306,0.148928,0.188535,-0.238529,18.018751,-7.8,-54.037502
1782300376035,0.0335,2.471786,10.52952,0.045692,0.12134,-0.259298,18.018751,-7.8,-54.037502
1782300376039,0.0335,2.471786,10.52952,0.045692,0.12134,-0.259298,17.71875,-7.63125,-54.487503
1782300376044,0.16989,2.423929,10.639589,-0.08259,0.069416,-0.284344,17.71875,-7.63125,-54.487503
1782300376049,0.16989,2.423929,10.639589,-0.08259,0.069416,-0.284344,17.512501,-6.46875,-54.018753
1782300376052,0.332602,2.26361,10.773587,-0.23103,0.02971,-0.309389,17.512501,-6.46875,-54.018753
1782300376059,0.332602,2.26361,10.773587,-0.23103,0.02971,-0.309389,16.6875,-7.33125,-55.237503
1782300376060,0.476172,1.940579,10.941084,-0.384357,0.008941,-0.330769,16.6875,-7.33125,-55.237503
1782300376069,0.524028,1.485943,11.218652,-0.530354,-0.003276,-0.349095,18.150002,-5.86875,-55.218754
1782300376079,0.524028,0.818345,11.599111,-0.653138,-0.008163,-0.363756,18.112501,-4.8375,-55.218754
1782300376086,0.727418,0.315853,12.084854,-0.745378,0.007719,-0.358258,18.112501,-4.8375,-55.218754
1782300376088,0.727418,0.315853,12.084854,-0.745378,0.007719,-0.358258,18.112501,-4.8375,-55.218754
1782300376095,0.622134,0.004786,12.223637,-0.785695,0.018715,-0.369254,18.112501,-4.8375,-55.218754
1782300376099,0.622134,0.004786,12.223637,-0.785695,0.018715,-0.369254,18.900002,-5.8875,-54.918751
1782300376103,0.512064,-0.260818,12.417456,-0.75393,-0.025268,-0.377806,18.900002,-5.8875,-54.918751
1782300376109,0.512064,-0.260818,12.417456,-0.75393,-0.025268,-0.377806,18.356251,-6.0,-56.887501
1782300376112,0.612563,-0.291924,12.431813,-0.643364,-0.085132,-0.379028,18.356251,-6.0,-56.887501
1782300376118,0.612563,-0.291924,12.431813,-0.643364,-0.085132,-0.379028,17.362501,-4.3875,-55.668751
1782300376121,0.571885,-0.299103,12.204495,-0.46438,-0.123617,-0.379028,17.362501,-4.3875,-55.668751
1782300376130,0.684347,-0.148355,11.77618,-0.234084,-0.141332,-0.350317,18.825001,-4.125,-54.450001
1782300376140,0.746561,0.088534,11.146867,0.002931,-0.142554,-0.324661,18.243752,-4.70625,-54.750004
1782300376146,0.643669,0.315853,10.328522,0.210014,-0.11873,-0.295339,18.243752,-4.70625,-54.750004
1782300376152,0.643669,0.315853,10.328522,0.210014,-0.11873,-0.295339,19.575001,-4.125,-54.150002
1782300376155,0.571885,0.540778,9.555641,0.34135,-0.132169,-0.262353,19.575001,-4.125,-54.150002
1782300376159,0.571885,0.540778,9.555641,0.34135,-0.132169,-0.262353,17.175001,-3.50625,-55.350002
1782300376164,0.471386,0.756132,8.916757,0.359676,-0.176762,-0.235474,17.175001,-3.50625,-55.350002
1782300376169,0.471386,0.756132,8.916757,0.359676,-0.176762,-0.235474,18.393751,-3.375,-55.650002
1782300376172,0.385244,0.976272,8.780365,0.287594,-0.199364,-0.20432,18.393751,-3.375,-55.650002
1782300376178,0.385244,0.976272,8.780365,0.287594,-0.199364,-0.20432,17.38125,-3.7875,-57.018753
1782300376181,0.397209,1.038485,8.703796,0.165421,-0.168821,-0.179275,17.38125,-3.7875,-57.018753
1782300376188,0.397209,1.038485,8.703796,0.165421,-0.168821,-0.179275,18.375,-4.40625,-54.450001
1782300376189,0.40678,0.969093,8.598511,0.015148,-0.116897,-0.16156,18.375,-4.40625,-54.450001
1782300376199,0.318245,0.792024,8.581762,-0.140011,-0.098571,-0.146288,18.356251,-3.825,-54.450001
1782300376207,0.334995,0.595813,8.85215,-0.265239,-0.103458,-0.134682,18.356251,-3.825,-54.450001
1782300376208,0.334995,0.595813,8.85215,-0.265239,-0.103458,-0.134682,18.356251,-3.825,-54.450001
1782300376215,0.380459,0.380459,9.189539,-0.32999,-0.085743,-0.130406,18.356251,-3.825,-54.450001
1782300376219,0.380459,0.380459,9.189539,-0.32999,-0.085743,-0.130406,18.375,-4.10625,-54.900002
1782300376224,0.344566,0.193819,9.457534,-0.323882,-0.044815,-0.135293,18.375,-4.10625,-54.900002
1782300376229,0.344566,0.193819,9.457534,-0.323882,-0.044815,-0.135293,18.431252,-5.5875,-54.918751
1782300376232,0.227318,0.078963,9.615461,-0.267071,0.009552,-0.137736,18.431252,-5.5875,-54.918751
1782300376238,0.227318,0.078963,9.615461,-0.267071,0.009552,-0.137736,18.1875,-4.25625,-53.550003
1782300376241,0.098106,0.117248,9.567605,-0.179107,0.045593,-0.135904,18.1875,-4.25625,-53.550003
1782300376253,-0.004786,0.179462,9.471892,-0.092975,0.057199,-0.129184,17.306252,-3.05625,-55.200001
1782300376259,0.019143,0.270389,9.483856,-0.02639,0.051091,-0.110858,17.475,-3.95625,-54.750004
1782300376267,0.105284,0.327817,9.514963,0.016981,0.038873,-0.09131,17.475,-3.95625,-54.750004
1782300376268,0.105284,0.327817,9.514963,0.016981,0.038873,-0.09131,17.456251,-3.20625,-55.350002
1782300376275,0.114855,0.385244,9.431214,0.03775,0.022991,-0.076039,17.456251,-3.20625,-55.350002
1782300376279,0.114855,0.385244,9.431214,0.03775,0.022991,-0.076039,19.63125,-4.40625,-55.668751
1782300376284,0.045464,0.454636,9.191931,0.045692,-0.024657,-0.068098,19.63125,-4.40625,-55.668751
1782300376289,0.045464,0.454636,9.191931,0.045692,-0.024657,-0.068098,18.112501,-4.10625,-55.968754
1782300376292,0.045464,0.454636,9.191931,0.049357,-0.09735,-0.068708,18.112501,-4.10625,-55.968754
1782300376293,0.059821,0.5001,8.907185,0.049357,-0.09735,-0.068708,18.112501,-4.10625,-55.968754
1782300376300,0.059821,0.5001,8.907185,0.049357,-0.09735,-0.068708,16.931252,-4.10625,-52.331253
1782300376301,0.078963,0.574277,8.655939,0.053633,-0.174929,-0.074206,16.931252,-4.10625,-52.331253
1782300376308,0.078963,0.574277,8.655939,0.053633,-0.174929,-0.074206,18.65625,-3.975,-54.000004
1782300376309,-0.083749,0.691526,8.294623,0.064018,-0.236016,-0.079093,18.65625,-3.975,-54.000004
1782300376320,-0.095713,0.792024,7.921342,0.0799,-0.287329,-0.084591,18.65625,-3.525,-54.750004
1782300376327,0.031107,0.787239,7.641382,0.080511,-0.308709,-0.100473,18.65625,-3.525,-54.750004
1782300376328,0.031107,0.787239,7.641382,0.080511,-0.308709,-0.100473,17.175001,-4.9875,-54.300003
1782300376335,0.143569,0.787239,7.576776,0.080511,-0.308709,-0.100473,17.175001,-4.9875,-54.300003
1782300376336,0.143569,0.787239,7.576776,0.06585,-0.289161,-0.121243,17.175001,-4.9875,-54.300003
1782300376338,0.143569,0.787239,7.576776,0.06585,-0.289161,-0.121243,18.056252,-3.80625,-54.450001
1782300376344,0.196211,0.844666,7.540884,0.049357,-0.251288,-0.138347,18.056252,-3.80625,-54.450001
1782300376352,0.196211,0.844666,7.540884,0.049357,-0.251288,-0.138347,17.475,-3.95625,-55.050003
1782300376353,0.323031,1.0002,7.516955,0.033474,-0.214025,-0.143845,17.475,-3.95625,-55.050003
1782300376359,0.323031,1.0002,7.516955,0.033474,-0.214025,-0.143845,17.325001,-4.3875,-54.450001
1782300376361,0.437887,1.107877,7.564812,0.008429,-0.163934,-0.14018,17.325001,-4.3875,-54.450001
1782300376368,0.437887,1.107877,7.564812,0.008429,-0.163934,-0.14018,16.96875,-3.35625,-54.131252
1782300376369,0.507278,1.189233,7.725131,-0.022114,-0.11201,-0.127351,16.96875,-3.35625,-54.131252
1782300376380,0.562313,1.217947,7.883057,-0.045327,-0.045426,-0.107804,18.09375,-4.10625,-55.200001
1782300376387,0.598206,1.261018,8.057734,-0.055712,0.026656,-0.08398,18.09375,-4.10625,-55.200001
1782300376388,0.598206,1.261018,8.057734,-0.055712,0.026656,-0.08398,17.587502,-3.375,-54.450001
1782300376396,0.571885,1.292124,8.21566,-0.055101,0.088353,-0.058935,17.587502,-3.375,-54.450001
1782300376398,0.571885,1.292124,8.21566,-0.055101,0.088353,-0.058935,16.25625,-4.0875,-54.450001
1782300376404,0.538385,1.287339,8.311372,-0.041051,0.157992,-0.038165,16.25625,-4.0875,-54.450001
1782300376409,0.538385,1.287339,8.311372,-0.041051,0.157992,-0.038165,16.5,-1.575,-55.181252
1782300376412,0.514457,1.258625,8.342479,-0.017227,0.220911,-0.019839,16.5,-1.575,-55.181252
1782300376418,0.514457,1.258625,8.342479,-0.017227,0.220911,-0.019839,16.668751,-3.95625,-53.531254
1782300376421,0.490529,1.244268,8.32573,0.007818,0.267948,-0.005789,16.668751,-3.95625,-53.531254
1782300376428,0.490529,1.244268,8.32573,0.007818,0.267948,-0.005789,17.25,-2.625,-53.831253
1782300376430,0.457029,1.253839,8.332908,0.027366,0.308265,0.006428,17.25,-2.625,-53.831253
1782300376440,0.435494,1.31366,8.433406,0.040805,0.336364,0.020478,17.34375,-3.7875,-55.668751
1782300376447,0.40678,1.416551,8.617653,0.056076,0.367518,0.035139,17.34375,-3.7875,-55.668751
1782300376448,0.40678,1.416551,8.617653,0.056076,0.367518,0.035139,17.606251,-4.10625,-54.450001
1782300376455,0.361316,1.485943,8.811472,0.071959,0.381568,0.053465,17.606251,-4.10625,-54.450001
1782300376459,0.361316,1.485943,8.811472,0.071959,0.381568,0.053465,17.137501,-3.95625,-54.000004
1782300376464,0.327817,1.533799,8.974185,0.095172,0.385234,0.073012,17.137501,-3.95625,-54.000004
1782300376469,0.327817,1.533799,8.974185,0.095172,0.385234,0.073012,18.993752,-4.70625,-54.300003
1782300376472,0.287139,1.550549,9.146468,0.120217,0.360799,0.088895,18.993752,-4.70625,-54.300003
1782300376478,0.287139,1.550549,9.146468,0.120217,0.360799,0.088895,18.675001,-4.25625,-54.300003
1782300376481,0.232104,1.605584,9.304394,0.147095,0.310708,0.101112,18.675001,-4.25625,-54.300003
1782300376488,0.232104,1.605584,9.304394,0.147095,0.310708,0.101112,18.806252,-3.825,-54.450001
1782300376490,0.150748,1.667797,9.421642,0.17153,0.2765,0.108442,18.806252,-3.825,-54.450001
1782300376499,0.112463,1.732404,9.474285,0.189245,0.230074,0.112108,18.69375,-5.4375,-54.000004
1782300376507,0.136391,1.81376,9.546069,0.198408,0.18487,0.11394,18.69375,-5.4375,-54.000004
1782300376508,0.136391,1.81376,9.546069,0.198408,0.18487,0.11394,19.612501,-5.15625,-54.468754
1782300376515,0.193819,1.883151,9.677674,0.206349,0.153716,0.115773,19.612501,-5.15625,-54.468754
1782300376518,0.193819,1.883151,9.677674,0.206349,0.153716,0.115773,18.675001,-5.45625,-53.550003
1782300376524,0.289532,1.928615,9.845171,0.210014,0.129892,0.121881,18.675001,-5.45625,-53.550003
1782300376529,0.289532,1.928615,9.845171,0.210014,0.129892,0.121881,19.125,-5.15625,-53.400002
1782300376533,0.39003,2.005185,10.041383,0.214901,0.144553,0.127379,19.125,-5.15625,-53.400002
1782300376539,0.39003,2.005185,10.041383,0.214901,0.144553,0.127379,18.918751,-4.725,-52.181252
1782300376541,0.39003,2.005185,10.041383,0.216123,0.166544,0.131655,18.918751,-4.725,-52.181252
1782300376542,0.454636,2.081756,10.29263,0.216123,0.166544,0.131655,18.918751,-4.725,-52.181252
1782300376549,0.454636,2.081756,10.29263,0.216123,0.166544,0.131655,19.650002,-6.6375,-54.168751
1782300376550,0.476172,2.07697,10.606089,0.222842,0.200142,0.129823,19.650002,-6.6375,-54.168751
1782300376560,0.440279,1.995614,11.003298,0.241779,0.217857,0.126157,18.825001,-5.60625,-53.400002
1782300376567,0.378066,1.880759,11.378972,0.272322,0.230074,0.120049,18.825001,-5.60625,-53.400002
1782300376568,0.378066,1.880759,11.378972,0.272322,0.230074,0.120049,19.143751,-5.90625,-53.100002
1782300376576,0.315853,1.765903,11.685253,0.308364,0.214802,0.112108,19.143751,-5.90625,-53.100002
1782300376578,0.315853,1.765903,11.685253,0.308364,0.214802,0.112108,19.1625,-6.6375,-53.100002
1782300376584,0.301496,1.67019,11.936499,0.346848,0.165933,0.100501,19.1625,-6.6375,-53.100002
1782300376589,0.301496,1.67019,11.936499,0.346848,0.165933,0.100501,19.331251,-7.21875,-53.268753
1782300376593,0.306281,1.552942,12.070497,0.385332,0.090797,0.08523,19.331251,-7.21875,-53.268753
1782300376598,0.306281,1.552942,12.070497,0.385332,0.090797,0.08523,18.918751,-8.1,-53.418751
1782300376601,0.392423,1.490728,12.094425,0.417708,0.004054,0.073012,18.918751,-8.1,-53.418751
1782300376608,0.392423,1.490728,12.094425,0.417708,0.004054,0.073012,18.356251,-6.9375,-51.600002
1782300376610,0.473779,1.495514,12.03939,0.442143,-0.072915,0.058962,18.356251,-6.9375,-51.600002
1782300376620,0.459422,1.567299,11.85275,0.455582,-0.119952,0.044912,19.3125,-7.5375,-52.200001
1782300376627,0.325424,1.674976,11.637396,0.46108,-0.153549,0.041247,19.3125,-7.5375,-52.200001
1782300376628,0.325424,1.674976,11.637396,0.46108,-0.153549,0.041247,18.993752,-7.81875,-51.450001
1782300376636,0.184247,1.773082,11.381364,0.457415,-0.171264,0.047967,18.993752,-7.81875,-51.450001
1782300376638,0.184247,1.773082,11.381364,0.457415,-0.171264,0.047967,17.643751,-7.66875,-51.900002
1782300376644,0.007178,1.842473,11.120546,0.441532,-0.160269,0.056519,17.643751,-7.66875,-51.900002
1782300376649,0.007178,1.842473,11.120546,0.441532,-0.160269,0.056519,18.112501,-8.85,-51.318752
1782300376653,-0.212961,1.923829,10.898014,0.408545,-0.157214,0.066293,18.112501,-8.85,-51.318752
1782300376660,-0.212961,1.923829,10.898014,0.408545,-0.157214,0.066293,19.25625,-10.181251,-52.687504
1782300376661,-0.181855,2.012364,10.773587,0.358454,-0.131558,0.076677,19.25625,-10.181251,-52.687504
1782300376668,-0.181855,2.012364,10.773587,0.358454,-0.131558,0.076677,19.25625,-10.181251,-52.687504
1782300376670,-0.581456,2.103291,10.596518,0.28454,-0.11873,0.091338,19.25625,-10.181251,-52.687504
1782300376679,-0.794417,2.139184,10.390735,0.188023,-0.131558,0.123714,18.825001,-7.6875,-51.300003
1782300376687,-0.727418,1.899901,10.397913,0.048135,-0.162101,0.151814,18.825001,-7.6875,-51.300003
1782300376688,-0.727418,1.899901,10.397913,0.048135,-0.162101,0.151814,18.393751,-7.66875,-51.600002
1782300376696,-0.557528,1.433301,10.651553,-0.130237,-0.179816,0.175027,18.393751,-7.66875,-51.600002
1782300376701,-0.557528,1.433301,10.651553,-0.130237,-0.179816,0.175027,17.981251,-9.28125,-51.768753
1782300376705,-0.301496,0.921237,11.199509,-0.313497,-0.188979,0.197018,17.981251,-9.28125,-51.768753
1782300376710,-0.301496,0.921237,11.199509,-0.313497,-0.188979,0.197018,17.700001,-10.1625,-51.618752
1782300376713,-0.07657,0.545564,11.699609,-0.479041,-0.157214,0.214122,17.700001,-10.1625,-51.618752
1782300376718,-0.07657,0.545564,11.699609,-0.479041,-0.157214,0.214122,19.1625,-9.900001,-50.100002
1782300376721,0.069392,0.311067,11.941285,-0.607934,-0.089408,0.231837,19.1625,-9.900001,-50.100002
1782300376728,0.069392,0.311067,11.941285,-0.607934,-0.089408,0.231837,18.13125,-8.85,-51.918751
1782300376730,0.07657,0.136391,11.950856,-0.678183,-0.049091,0.250163,18.13125,-8.85,-51.918751
1782300376739,0.062213,0.038285,11.771394,-0.676961,-0.050313,0.274598,18.768751,-9.0,-52.518753
1782300376747,-0.119641,0.129212,11.395721,-0.59816,-0.073526,0.302697,18.768751,-9.0,-52.518753
1782300376748,-0.119641,0.129212,11.395721,-0.59816,-0.073526,0.302697,16.762501,-8.53125,-51.768753
1782300376756,-0.397209,0.308674,10.783159,-0.462548,-0.117508,0.330797,16.762501,-8.53125,-51.768753
1782300376760,-0.397209,0.308674,10.783159,-0.462548,-0.117508,0.330797,17.606251,-6.91875,-51.300003
1782300376764,-0.591027,0.552742,10.017455,-0.296393,-0.144386,0.357675,17.606251,-6.91875,-51.300003
1782300376769,-0.591027,0.552742,10.017455,-0.296393,-0.144386,0.357675,18.88125,-8.418751,-51.918751
1782300376773,-0.713061,0.765703,9.292429,-0.140622,-0.159658,0.371114,18.88125,-8.418751,-51.918751
1782300376779,-0.713061,0.765703,9.292429,-0.140622,-0.159658,0.371114,16.612501,-7.65,-52.668751
1782300376782,-0.806381,0.981057,8.701402,-0.020893,-0.185925,0.369282,16.612501,-7.65,-52.668751
1782300376788,-0.806381,0.981057,8.701402,-0.020893,-0.185925,0.369282,17.38125,-7.65,-53.418751
1782300376790,-0.868595,1.052842,8.332908,0.047524,-0.249455,0.354621,17.38125,-7.65,-53.418751
1782300376799,-0.758525,1.249053,8.153447,0.040805,-0.324591,0.335684,16.63125,-9.4125,-51.918751
1782300376807,-0.811167,1.332802,8.246767,-0.02578,-0.399728,0.316747,16.63125,-9.4125,-51.918751
1782300376808,-0.811167,1.332802,8.246767,-0.02578,-0.399728,0.316747,15.337501,-7.78125,-50.700001
1782300376816,-0.823131,1.277767,8.490835,-0.129627,-0.445543,0.315526,15.337501,-7.78125,-50.700001
1782300376818,-0.823131,1.277767,8.490835,-0.129627,-0.445543,0.315526,15.937501,-6.75,-51.450001
1782300376825,-0.722632,1.079163,8.687046,-0.269515,-0.48586,0.313082,15.937501,-6.75,-51.450001
1782300376829,-0.722632,1.079163,8.687046,-0.269515,-0.48586,0.313082,17.53125,-8.25,-52.518753
1782300376833,-0.605384,0.753739,9.07229,-0.422842,-0.476086,0.310028,17.53125,-8.25,-52.518753
1782300376838,-0.605384,0.753739,9.07229,-0.422842,-0.476086,0.310028,16.706251,-7.5,-51.450001
1782300376842,-0.401994,0.461815,9.562819,-0.543793,-0.407669,0.310028,16.706251,-7.5,-51.450001
1782300376848,-0.401994,0.461815,9.562819,-0.543793,-0.407669,0.310028,13.106251,-7.74375,-51.750004
1782300376850,-0.160319,0.181855,9.871493,-0.595106,-0.295881,0.303308,13.106251,-7.74375,-51.750004
1782300376860,0.081356,-0.059821,10.034205,-0.583499,-0.183482,0.291702,15.675,-7.48125,-52.200001
1782300376869,0.27996,-0.229711,10.067705,-0.514471,-0.084521,0.273376,14.962501,-7.4625,-53.568752
1782300376876,0.387637,-0.282353,9.969598,-0.40024,-0.027711,0.252606,14.962501,-7.4625,-53.568752
1782300376878,0.387637,-0.282353,9.969598,-0.40024,-0.027711,0.252606,14.475,-7.33125,-52.350002
1782300376885,0.428315,-0.224925,9.780566,-0.253632,0.010163,0.231226,14.475,-7.33125,-52.350002
1782300376889,0.428315,-0.224925,9.780566,-0.253632,0.010163,0.231226,14.587501,-6.45,-52.200001
1782300376893,0.449851,-0.059821,9.464713,-0.099694,0.030321,0.216565,14.587501,-6.45,-52.200001
1782300376898,0.449851,-0.059821,9.464713,-0.099694,0.030321,0.216565,14.64375,-7.1625,-53.268753
1782300376902,0.504886,0.138784,9.03879,0.038972,0.067584,0.201294,14.64375,-7.1625,-53.268753
1782300376908,0.504886,0.138784,9.03879,0.038972,0.067584,0.201294,14.75625,-5.85,-53.100002
1782300376910,0.535992,0.27996,8.548262,0.141597,0.088964,0.186022,14.75625,-5.85,-53.100002
1782300376919,0.55992,0.42353,8.103197,0.20024,0.097516,0.170751,13.837501,-5.98125,-52.950001
1782300376929,0.552742,0.547956,7.906985,0.208182,0.073693,0.153036,13.406251,-6.7125,-52.500004
1782300376936,0.485743,0.717847,7.835201,0.183747,0.065751,0.132877,13.406251,-6.7125,-52.500004
1782300376939,0.485743,0.717847,7.835201,0.183747,0.065751,0.132877,14.175,-8.212501,-51.450001
1782300376945,0.447458,0.875773,7.892629,0.140987,0.057199,0.118216,14.175,-8.212501,-51.450001
1782300376949,0.447458,0.875773,7.892629,0.140987,0.057199,0.118216,15.69375,-7.48125,-52.518753
1782300376953,0.368495,1.004985,7.942878,0.095172,0.059643,0.108442,15.69375,-7.48125,-52.518753
1782300376958,0.368495,1.004985,7.942878,0.095172,0.059643,0.108442,14.175,-7.4625,-52.200001
1782300376962,0.251246,1.09352,7.952449,0.054855,0.067584,0.102334,14.175,-7.4625,-52.200001
1782300376968,0.251246,1.09352,7.952449,0.054855,0.067584,0.102334,15.618751,-6.01875,-51.431252
1782300376970,0.133998,1.158126,8.019448,0.025533,0.075525,0.098669,15.618751,-6.01875,-51.431252
1782300376979,0.11007,1.177269,8.060126,0.013927,0.092629,0.091949,14.625001,-8.212501,-51.768753
1782300376989,0.105284,1.184447,8.074483,0.012705,0.090797,0.081564,15.562501,-7.63125,-53.118752
1782300376996,0.150748,1.208375,8.112769,0.019424,0.096295,0.072401,15.562501,-7.63125,-53.118752
1782300376998,0.150748,1.208375,8.112769,0.019424,0.096295,0.072401,14.606251,-8.962501,-50.400002
1782300377005,0.215354,1.225125,8.191731,0.029198,0.093851,0.062017,14.606251,-8.962501,-50.400002
1782300377009,0.215354,1.225125,8.191731,0.029198,0.093851,0.062017,13.1625,-8.475,-52.518753
1782300377013,0.287139,1.251446,8.241981,0.038361,0.096905,0.046745,13.1625,-8.475,-52.518753
1782300377019,0.287139,1.251446,8.241981,0.038361,0.096905,0.046745,14.94375,-7.7625,-52.518753
1782300377022,0.303888,1.251446,8.320943,0.038972,0.06514,0.030252,14.94375,-7.7625,-52.518753
1782300377028,0.303888,1.251446,8.320943,0.038972,0.06514,0.030252,15.4125,-8.212501,-52.518753
1782300377030,0.275175,1.277767,8.524334,0.033474,0.024212,0.011926,15.4125,-8.212501,-52.518753
1782300377040,0.227318,1.316052,8.763616,0.026755,-0.024046,-0.005178,16.35,-5.7375,-50.981251
1782300377049,0.193819,1.316052,8.986148,0.024311,-0.053978,-0.023504,14.45625,-7.33125,-51.600002
1782300377056,0.191426,1.28016,9.151253,0.027977,-0.063141,-0.043663,14.45625,-7.33125,-51.600002
1782300377058,0.191426,1.28016,9.151253,0.027977,-0.063141,-0.043663,14.775001,-6.88125,-52.650002
1782300377065,0.191426,1.28016,9.151253,0.034085,-0.06925,-0.066876,14.775001,-6.88125,-52.650002
1782300377069,0.205783,1.22034,9.330715,0.034085,-0.06925,-0.066876,14.6625,-8.212501,-52.968754
1782300377074,0.248854,1.18684,9.471892,0.049357,-0.063141,-0.087034,14.6625,-8.212501,-52.968754
1782300377079,0.248854,1.18684,9.471892,0.049357,-0.063141,-0.087034,13.89375,-8.19375,-52.518753
1782300377082,0.267996,1.225125,9.589139,0.0799,-0.035652,-0.10536,13.89375,-8.19375,-52.518753
1782300377088,0.267996,1.225125,9.589139,0.0799,-0.035652,-0.10536,14.493751,-8.793751,-51.618752
1782300377090,0.299103,1.287339,9.526927,0.128158,0.007719,-0.125519,14.493751,-8.793751,-51.618752
1782300377100,0.291924,1.421337,9.347465,0.187412,0.047425,-0.145066,14.512501,-6.45,-49.931252
1782300377109,0.267996,1.581656,9.062719,0.241779,0.048647,-0.163392,14.137501,-8.512501,-50.400002
1782300377116,0.282353,1.734796,8.94547,0.280875,0.049869,-0.178664,14.137501,-8.512501,-50.400002
1782300377118,0.282353,1.734796,8.94547,0.280875,0.049869,-0.178664,15.825001,-8.08125,-51.600002
1782300377125,0.263211,1.852045,8.935899,0.300422,0.052312,-0.19027,15.825001,-8.08125,-51.600002
1782300377129,0.263211,1.852045,8.935899,0.300422,0.052312,-0.19027,14.925,-8.512501,-51.000004
1782300377133,0.263211,1.916651,8.998112,0.300422,0.068195,-0.197601,14.925,-8.512501,-51.000004
1782300377139,0.263211,1.916651,8.998112,0.300422,0.068195,-0.197601,15.543751,-8.8125,-51.318752
1782300377142,0.232104,1.981257,9.168003,0.279653,0.087132,-0.203099,15.543751,-8.8125,-51.318752
1782300377148,0.232104,1.981257,9.168003,0.279653,0.087132,-0.203099,15.543751,-8.8125,-51.318752
1782300377150,0.210568,2.067399,9.498212,0.246666,0.108512,-0.207375,15.543751,-8.8125,-51.318752
1782300377159,0.172283,2.115255,9.854744,0.216734,0.118286,-0.209818,14.981251,-9.993751,-51.468754
1782300377169,0.141177,2.09372,10.137096,0.194743,0.139055,-0.208596,15.656251,-8.53125,-50.400002
1782300377177,0.141177,2.019542,10.390735,0.173973,0.157992,-0.206153,15.656251,-8.53125,-50.400002
1782300377178,0.141177,2.019542,10.390735,0.173973,0.157992,-0.206153,14.906251,-8.231251,-51.000004
1782300377185,0.102891,1.89033,10.670696,0.148317,0.165933,-0.205542,14.906251,-8.231251,-51.000004
1782300377189,0.102891,1.89033,10.670696,0.148317,0.165933,-0.205542,15.656251,-8.981251,-49.950001
1782300377193,0.074178,1.708475,11.046369,0.121439,0.19892,-0.20371,15.656251,-8.981251,-49.950001
1782300377199,0.074178,1.708475,11.046369,0.121439,0.19892,-0.20371,15.468751,-8.38125,-49.331253
1782300377202,0.071785,1.512264,11.498612,0.100059,0.23435,-0.201266,15.468751,-8.38125,-49.331253
1782300377208,0.071785,1.512264,11.498612,0.100059,0.23435,-0.201266,15.468751,-8.1,-49.781254
1782300377211,0.122034,1.385444,11.907785,0.084176,0.287495,-0.195157,15.468751,-8.1,-49.781254
1782300377219,0.043071,1.371087,12.147068,0.090896,0.350414,-0.194547,14.812501,-11.175,-49.818752
1782300377229,0.007178,1.454836,12.261922,0.12938,0.415166,-0.192103,16.612501,-9.13125,-51.318752
1782300377236,-0.028714,1.617548,12.080068,0.192299,0.482972,-0.188438,16.612501,-9.13125,-51.318752
1782300377238,-0.028714,1.617548,12.080068,0.192299,0.482972,-0.188438,17.137501,-9.3,-48.881252
1782300377245,-0.11007,1.773082,11.651753,0.257662,0.526343,-0.178664,17.137501,-9.3,-48.881252
1782300377249,-0.11007,1.773082,11.651753,0.257662,0.526343,-0.178664,14.906251,-8.962501,-50.400002
1782300377253,-0.162712,1.897508,11.130118,0.297979,0.522678,-0.167058,14.906251,-8.962501,-50.400002
1782300377259,-0.162712,1.897508,11.130118,0.297979,0.522678,-0.167058,17.550001,-8.418751,-48.262501
1782300377262,-0.181855,1.957329,10.766408,0.290648,0.47442,-0.159116,17.550001,-8.418751,-48.262501
1782300377268,-0.181855,1.957329,10.766408,0.290648,0.47442,-0.159116,16.462502,-10.012501,-50.718754
1782300377271,-0.224925,2.129612,10.603696,0.23506,0.426161,-0.154229,16.462502,-10.012501,-50.718754
1782300377278,-0.224925,2.129612,10.603696,0.23506,0.426161,-0.154229,17.94375,-10.03125,-49.650002
1782300377279,-0.205783,2.215754,10.596518,0.140987,0.379736,-0.152397,17.94375,-10.03125,-49.650002
1782300377289,-0.205783,2.215754,10.596518,0.003542,0.330867,-0.149953,17.94375,-10.03125,-49.650002
1782300377290,-0.059821,2.057827,10.689838,0.003542,0.330867,-0.149953,15.281251,-8.55,-48.431252
1782300377297,0.174676,1.655833,11.046369,-0.168722,0.291771,-0.153619,15.281251,-8.55,-48.431252
1782300377298,0.174676,1.655833,11.046369,-0.168722,0.291771,-0.153619,18.375,-9.900001,-49.050003
1782300377305,0.191426,1.115055,11.687645,-0.352592,0.226409,-0.163392,18.375,-9.900001,-49.050003
1782300377308,0.191426,1.115055,11.687645,-0.352592,0.226409,-0.163392,18.65625,-10.06875,-48.131252
1782300377314,0.083749,0.708275,12.434206,-0.497367,0.14944,-0.173166,18.65625,-10.06875,-48.131252
1782300377319,0.083749,0.708275,12.434206,-0.497367,0.14944,-0.173166,18.825001,-10.650001,-48.300003
1782300377322,0.117248,0.349352,12.898413,-0.578001,0.095684,-0.18294,18.825001,-10.650001,-48.300003
1782300377328,0.117248,0.349352,12.898413,-0.578001,0.095684,-0.18294,19.087502,-9.918751,-47.981251
1782300377331,0.119641,-0.055035,12.958234,-0.599382,0.051701,-0.186605,19.087502,-9.918751,-47.981251
1782300377338,0.119641,-0.055035,12.958234,-0.599382,0.051701,-0.186605,18.581251,-7.85625,-48.412502
1782300377339,0.090927,-0.342174,12.805093,-0.562119,0.039484,-0.195768,18.581251,-7.85625,-48.412502
1782300377349,0.112463,-0.318245,12.230816,-0.470489,0.05781,-0.209207,18.581251,-7.55625,-48.412502
1782300377357,0.141177,-0.021535,11.254545,-0.333655,0.084077,-0.215927,18.581251,-7.55625,-48.412502
1782300377358,0.141177,-0.021535,11.254545,-0.333655,0.084077,-0.215927,18.75,-6.95625,-49.312504
1782300377365,0.117248,0.433101,10.149061,-0.179717,0.07186,-0.213483,18.75,-6.95625,-49.312504
1782300377369,0.117248,0.433101,10.149061,-0.179717,0.07186,-0.213483,18.581251,-7.85625,-48.412502
1782300377374,0.035892,0.57667,9.325929,-0.035553,0.011995,-0.205542,18.581251,-7.85625,-48.412502
1782300377379,0.035892,0.57667,9.325929,-0.035553,0.011995,-0.205542,18.675001,-7.725,-46.443752
1782300377385,0.212961,0.617348,8.9024,0.059742,-0.014272,-0.184162,18.675001,-7.725,-46.443752
1782300377388,0.212961,0.617348,8.9024,0.059742,-0.014272,-0.184162,16.40625,-5.90625,-48.243752
1782300377391,0.222533,0.693919,8.500406,0.092117,-0.034431,-0.174388,16.40625,-5.90625,-48.243752
1782300377398,0.222533,0.693919,8.500406,0.092117,-0.034431,-0.174388,19.481251,-7.425,-48.262501
1782300377399,0.078963,0.777667,8.395121,0.070737,-0.086354,-0.177442,19.481251,-7.425,-48.262501
1782300377409,-0.021535,0.897308,8.699009,0.004153,-0.135223,-0.185994,17.775002,-6.525,-47.793751
1782300377417,-0.11007,0.909273,9.144075,-0.090531,-0.138888,-0.201877,17.775002,-6.525,-47.793751
1782300377418,-0.11007,0.909273,9.144075,-0.090531,-0.138888,-0.201877,19.931252,-6.825,-48.862503
1782300377425,-0.208176,0.827917,9.424035,-0.190713,-0.145608,-0.215927,19.931252,-6.825,-48.862503
1782300377428,-0.208176,0.827917,9.424035,-0.190713,-0.145608,-0.215927,18.862501,-7.275,-47.8125
1782300377434,-0.239282,0.674776,9.579568,-0.281121,-0.177984,-0.233642,18.862501,-7.275,-47.8125
1782300377439,-0.239282,0.674776,9.579568,-0.281121,-0.177984,-0.233642,18.300001,-7.6875,-48.712502
1782300377442,-0.224925,0.464208,9.680068,-0.347094,-0.203029,-0.248303,18.300001,-7.6875,-48.712502
1782300377448,-0.224925,0.464208,9.680068,-0.347094,-0.203029,-0.248303,18.075001,-6.075,-48.093754
1782300377451,-0.189033,0.265603,9.706388,-0.380081,-0.21036,-0.256244,18.075001,-6.075,-48.093754
1782300377458,-0.189033,0.265603,9.706388,-0.380081,-0.21036,-0.256244,18.150002,-7.2375,-49.162502
1782300377459,-0.153141,0.105284,9.713566,-0.381303,-0.206694,-0.259298,18.150002,-7.2375,-49.162502
1782300377469,-0.133998,0.028714,9.615461,-0.35809,-0.157214,-0.256855,17.1,-4.89375,-47.475002
1782300377477,-0.105284,-0.031107,9.409678,-0.323882,-0.110789,-0.248303,17.1,-4.89375,-47.475002
1782300377478,-0.105284,-0.031107,9.409678,-0.323882,-0.110789,-0.248303,17.868752,-4.44375,-48.225002
1782300377485,-0.050249,-0.09332,9.223038,-0.283564,-0.066806,-0.238529,17.868752,-4.44375,-48.225002
1782300377488,-0.050249,-0.09332,9.223038,-0.283564,-0.066806,-0.238529,18.75,-5.5125,-46.575001
1782300377494,-0.045464,-0.074178,9.108182,-0.239582,-0.023435,-0.22509,18.75,-5.5125,-46.575001
1782300377499,-0.045464,-0.074178,9.108182,-0.239582,-0.023435,-0.22509,17.325001,-4.725,-49.593754
1782300377503,-0.011964,0.047856,9.036397,-0.190713,0.033986,-0.208596,17.325001,-4.725,-49.593754
1782300377509,-0.011964,0.047856,9.036397,-0.190713,0.033986,-0.208596,18.243752,-5.175,-49.762501
1782300377511,-0.019143,0.198604,8.923935,-0.132681,0.103014,-0.193936,18.243752,-5.175,-49.762501
1782300377519,-0.062213,0.363709,8.720545,-0.08259,0.141498,-0.178053,18.618752,-4.9125,-47.475002
1782300377530,-0.11007,0.504886,8.49562,-0.037997,0.148829,-0.164614,18.225,-6.375,-47.943752
1782300377537,-0.184247,0.62692,8.297016,-0.009286,0.124394,-0.151175,18.225,-6.375,-47.943752
1782300377538,-0.184247,0.62692,8.297016,-0.009286,0.124394,-0.151175,16.06875,-3.84375,-48.993752
1782300377545,-0.200997,0.746561,8.146267,0.004153,0.073082,-0.138958,16.06875,-3.84375,-48.993752
1782300377548,-0.200997,0.746561,8.146267,0.004153,0.073082,-0.138958,18.525002,-5.79375,-48.393753
1782300377554,-0.22014,0.832702,8.021841,0.002931,0.023602,-0.13346,18.525002,-5.79375,-48.393753
1782300377559,-0.22014,0.832702,8.021841,0.002931,0.023602,-0.13346,18.806252,-6.54375,-47.043751
1782300377562,-0.234497,0.897308,7.938092,-0.008675,-0.024046,-0.132849,18.806252,-6.54375,-47.043751
1782300377568,-0.234497,0.897308,7.938092,-0.008675,-0.024046,-0.132849,18.50625,-5.49375,-48.393753
1782300377571,-0.256032,0.964308,7.952449,-0.027001,-0.086354,-0.13346,18.50625,-5.49375,-48.393753
1782300377578,-0.256032,0.964308,7.952449,-0.027001,-0.086354,-0.13346,17.38125,-5.19375,-46.106251
1782300377580,-0.265603,1.050449,8.029019,-0.038608,-0.119341,-0.13346,17.38125,-5.19375,-46.106251
1782300377590,-0.229711,1.12702,8.115161,-0.045327,-0.138888,-0.129184,17.118752,-5.625,-47.175003
1782300377597,-0.20339,1.146162,8.194125,-0.043495,-0.127893,-0.123075,17.118752,-5.625,-47.175003
1782300377598,-0.20339,1.146162,8.194125,-0.043495,-0.127893,-0.123075,18.6,-4.9125,-47.175003
1782300377606,-0.200997,1.189233,8.241981,-0.032499,-0.082689,-0.11208,18.6,-4.9125,-47.175003
1782300377608,-0.200997,1.189233,8.241981,-0.032499,-0.082689,-0.11208,18.6,-4.9125,-47.175003
1782300377614,-0.193819,1.234697,8.263516,-0.016006,-0.020992,-0.097419,18.6,-4.9125,-47.175003
1782300377619,-0.193819,1.234697,8.263516,-0.016006,-0.020992,-0.097419,18.450001,-3.58125,-48.375004
1782300377622,-0.18664,1.306481,8.237196,-0.004399,0.048647,-0.080315,18.450001,-3.58125,-48.375004
1782300377628,-0.18664,1.306481,8.237196,-0.004399,0.048647,-0.080315,17.868752,-5.64375,-46.875
1782300377631,-0.157926,1.395016,8.246767,-0.003178,0.116453,-0.0626,17.868752,-5.64375,-46.875
1782300377638,-0.157926,1.395016,8.246767,-0.003178,0.116453,-0.0626,20.175001,-5.9625,-47.943752
1782300377640,-0.136391,1.45005,8.337694,-0.016617,0.155548,-0.047328,20.175001,-5.9625,-47.943752
1782300377649,-0.098106,1.459622,8.567404,-0.031277,0.186092,-0.036333,18.993752,-5.64375,-48.993752
1782300377657,-0.098106,1.445265,8.847365,-0.039219,0.208694,-0.028391,18.993752,-5.64375,-48.993752
1782300377658,-0.098106,1.445265,8.847365,-0.039219,0.208694,-0.028391,17.25,-5.49375,-46.575001
1782300377666,-0.098106,1.445265,8.847365,-0.037386,0.236793,-0.021672,17.25,-5.49375,-46.575001
1782300377670,-0.11007,1.433301,9.077076,-0.037386,0.236793,-0.021672,18.956251,-6.39375,-47.193752
1782300377675,-0.122034,1.363909,9.177575,-0.028834,0.258174,-0.015563,18.956251,-6.39375,-47.193752
1782300377679,-0.122034,1.363909,9.177575,-0.028834,0.258174,-0.015563,20.19375,-6.69375,-47.943752
1782300377689,-0.112463,1.311267,9.311573,-0.017227,0.258174,-0.008844,18.4125,-5.5125,-45.206253
1782300377691,-0.107677,1.320838,9.469499,0.004764,0.242291,-0.002735,18.4125,-5.5125,-45.206253
1782300377699,-0.107677,1.320838,9.469499,0.004764,0.242291,-0.002735,19.650002,-5.9625,-45.675003
1782300377700,-0.138784,1.351945,9.579568,0.038972,0.223354,0.004595,19.650002,-5.9625,-45.675003
1782300377713,-0.138784,1.351945,9.579568,0.038972,0.223354,0.004595,18.65625,-6.675,-47.193752
1782300377714,-0.191426,1.402194,9.613068,0.084176,0.205639,0.013147,18.65625,-6.675,-47.193752
1782300377717,-0.248854,1.473979,9.553248,0.130602,0.17754,0.02231,18.65625,-6.675,-47.193752
1782300377718,-0.248854,1.473979,9.553248,0.130602,0.17754,0.02231,21.0375,-7.3125,-45.525002
1782300377726,-0.306281,1.600798,9.457534,0.173362,0.148829,0.030252,21.0375,-7.3125,-45.525002
1782300377728,-0.306281,1.600798,9.457534,0.173362,0.148829,0.030252,18.731251,-5.5125,-45.806252
1782300377734,-0.306281,1.600798,9.457534,0.212458,0.109734,0.040636,18.731251,-5.5125,-45.806252
1782300377735,-0.339781,1.718047,9.392929,0.212458,0.109734,0.040636,18.731251,-5.5125,-45.806252
1782300377739,-0.339781,1.718047,9.392929,0.212458,0.109734,0.040636,18.75,-5.0625,-46.575001
1782300377743,-0.346959,1.823331,9.376178,0.248499,0.081634,0.052854,18.75,-5.0625,-46.575001
1782300377749,-0.346959,1.823331,9.376178,0.248499,0.081634,0.052854,18.637501,-6.39375,-46.425003
1782300377751,-0.346959,1.823331,9.376178,0.278431,0.058421,0.06446,18.637501,-6.39375,-46.425003
1782300377752,-0.33021,1.887937,9.371393,0.278431,0.058421,0.06446,18.637501,-6.39375,-46.425003
1782300377758,-0.33021,1.887937,9.371393,0.278431,0.058421,0.06446,20.0625,-5.68125,-44.90625
1782300377760,-0.315853,1.914258,9.457534,0.296146,0.024212,0.073012,20.0625,-5.68125,-44.90625
1782300377769,-0.315853,1.914258,9.457534,0.296146,-0.028322,0.079121,20.0625,-5.68125,-44.90625
1782300377770,-0.308674,1.954936,9.627425,0.296146,-0.028322,0.079121,21.206251,-7.4625,-45.675003
1782300377777,-0.308674,1.954936,9.627425,0.282096,-0.094295,0.083397,21.206251,-7.4625,-45.675003
1782300377778,-0.299103,1.962115,9.840386,0.282096,-0.094295,0.083397,18.450001,-6.09375,-45.825001
1782300377786,-0.270389,1.938186,10.113168,0.26316,-0.148051,0.088895,18.450001,-6.09375,-45.825001
1782300377788,-0.270389,1.938186,10.113168,0.26316,-0.148051,0.088895,20.306252,-7.59375,-45.525002
1782300377799,-0.193819,1.849652,10.326129,0.240558,-0.174319,0.094392,20.306252,-7.59375,-45.525002
1782300377800,-0.193819,1.849652,10.326129,0.240558,-0.174319,0.094392,18.731251,-6.84375,-44.756252
1782300377803,-0.117248,1.684547,10.55584,0.216123,-0.190812,0.101112,18.731251,-6.84375,-44.756252
1782300377808,-0.117248,1.684547,10.55584,0.216123,-0.190812,0.101112,18.46875,-7.575,-45.225002
1782300377811,-0.117248,1.684547,10.55584,0.195354,-0.203029,0.10661,18.46875,-7.575,-45.225002
1782300377812,-0.043071,1.495514,10.902799,0.195354,-0.203029,0.10661,18.46875,-7.575,-45.225002
1782300377819,-0.043071,1.495514,10.902799,0.195354,-0.203029,0.10661,18.69375,-6.1125,-44.006252
1782300377820,0.031107,1.323231,11.302401,0.183136,-0.204862,0.114551,18.69375,-6.1125,-44.006252
1782300377829,0.031107,1.323231,11.302401,0.193521,-0.181649,0.124325,18.69375,-6.1125,-44.006252
1782300377830,0.102891,1.17009,11.728323,0.193521,-0.181649,0.124325,20.625,-6.0,-43.087502
1782300377837,0.102891,1.17009,11.728323,0.224064,-0.134612,0.136542,20.625,-6.0,-43.087502
1782300377838,0.172283,1.119841,12.03939,0.224064,-0.134612,0.136542,20.118752,-7.74375,-44.325001
1782300377846,0.193819,1.119841,12.111175,0.275988,-0.085743,0.146927,20.118752,-7.74375,-44.325001
1782300377849,0.193819,1.119841,12.111175,0.275988,-0.085743,0.146927,18.993752,-9.9375,-44.943752
1782300377855,0.184247,1.239482,11.907785,0.335852,-0.044815,0.156701,18.993752,-9.9375,-44.943752
1782300377860,0.184247,1.239482,11.907785,0.335852,-0.044815,0.156701,18.975,-8.15625,-46.143753
1782300377863,0.119641,1.464407,11.596718,0.392663,-0.008774,0.165253,18.975,-8.15625,-46.143753
1782300377869,0.119641,1.464407,11.596718,0.392663,-0.008774,0.165253,19.40625,-7.725,-45.675003
1782300377871,-0.028714,1.70369,11.218652,0.438478,0.019936,0.176248,19.40625,-7.725,-45.675003
1782300377878,-0.028714,1.70369,11.218652,0.438478,0.019936,0.176248,19.3125,-7.7625,-42.806252
1782300377880,-0.189033,1.832902,10.902799,0.459858,0.011995,0.19152,19.3125,-7.7625,-42.806252
1782300377889,-0.31346,1.911865,10.754445,0.435423,-0.014883,0.207402,19.518751,-7.89375,-44.475002
1782300377897,-0.31346,1.911865,10.754445,0.359065,-0.046648,0.220231,19.518751,-7.89375,-44.475002
1782300377898,-0.40678,2.120041,10.704196,0.359065,-0.046648,0.220231,19.518751,-7.89375,-44.475002
1782300377906,-0.524028,2.328216,10.730516,0.251553,-0.067417,0.230615,19.125,-9.806251,-44.493752
1782300377908,-0.524028,2.328216,10.730516,0.251553,-0.067417,0.230615,19.03125,-8.625,-42.956253
1782300377915,-0.61017,2.349752,10.756837,0.123271,-0.079024,0.242833,19.03125,-8.625,-42.956253
1782300377919,-0.61017,2.349752,10.756837,0.123271,-0.079024,0.242833,18.65625,-9.20625,-44.643753
1782300377924,-0.605384,2.081756,10.862121,-0.027612,-0.084521,0.263602,18.65625,-9.20625,-44.643753
1782300377929,-0.605384,2.081756,10.862121,-0.027612,-0.084521,0.263602,19.106251,-9.356251,-44.493752
1782300377932,-0.583849,1.600798,11.096618,-0.201098,-0.089408,0.286204,19.106251,-9.356251,-44.493752
1782300377938,-0.583849,1.600798,11.096618,-0.201098,-0.089408,0.286204,20.306252,-9.825001,-43.425003
1782300377940,-0.583849,1.600798,11.096618,-0.383746,-0.091852,0.2972,20.306252,-9.825001,-43.425003
1782300377941,-0.524028,1.083949,11.532112,-0.383746,-0.091852,0.2972,20.306252,-9.825001,-43.425003
1782300377949,-0.524028,1.083949,11.532112,-0.383746,-0.091852,0.2972,18.69375,-10.2375,-44.943752
1782300377950,-0.48335,0.605384,12.127924,-0.538295,-0.069861,0.299032,18.69375,-10.2375,-44.943752
1782300377959,-0.452243,0.244068,12.565812,-0.630536,-0.027711,0.29781,18.0375,-9.356251,-43.725002
1782300377966,-0.433101,0.01675,12.680666,-0.650694,-0.001444,0.294756,18.0375,-9.356251,-43.725002
1782300377969,-0.433101,0.01675,12.680666,-0.650694,-0.001444,0.294756,18.75,-7.89375,-44.025002
1782300377975,-0.358923,-0.088534,12.486848,-0.607934,0.016882,0.296589,18.75,-7.89375,-44.025002
1782300377979,-0.358923,-0.088534,12.486848,-0.607934,0.016882,0.296589,19.518751,-7.59375,-44.475002
1782300377984,-0.311067,-0.157926,12.015462,-0.504087,-0.002666,0.2972,19.518751,-7.59375,-44.475002
1782300377989,-0.311067,-0.157926,12.015462,-0.504087,-0.002666,0.2972,18.900002,-6.99375,-44.606251
1782300377992,-0.289532,-0.07657,11.438792,-0.351981,-0.057033,0.296589,18.900002,-6.99375,-44.606251
1782300378005,-0.289532,0.141177,10.754445,-0.179717,-0.107123,0.291091,18.543751,-6.7125,-43.556252
1782300378009,-0.289532,0.141177,10.754445,-0.016617,-0.150495,0.280706,18.543751,-6.7125,-43.556252
1782300378010,-0.318245,0.401994,10.015062,-0.016617,-0.150495,0.280706,19.087502,-8.625,-44.475002
1782300378019,-0.320638,0.660419,9.435999,0.107389,-0.174929,0.268489,18.150002,-7.425,-44.625
1782300378026,-0.294317,0.933201,9.055541,0.167254,-0.152938,0.259326,18.150002,-7.425,-44.625
1782300378028,-0.294317,0.933201,9.055541,0.167254,-0.152938,0.259326,18.618752,-9.20625,-43.575001
1782300378035,-0.31346,1.15334,8.828222,0.159923,-0.096128,0.251996,18.618752,-9.20625,-43.575001
1782300378041,-0.31346,1.15334,8.828222,0.159923,-0.096128,0.251996,18.13125,-8.175,-43.106251
1782300378044,-0.356531,1.237089,8.639189,0.099448,-0.040539,0.24772,18.13125,-8.175,-43.106251
1782300378051,-0.356531,1.237089,8.639189,0.099448,-0.040539,0.24772,18.900002,-8.19375,-43.556252
1782300378052,-0.385244,1.239482,8.567404,0.00232,-0.008163,0.246498,18.900002,-8.19375,-43.556252
1782300378059,-0.385244,1.239482,8.567404,0.00232,-0.008163,0.246498,17.981251,-7.875,-43.40625
1782300378060,-0.413958,1.189233,8.675082,-0.100916,0.006497,0.248941,17.981251,-7.875,-43.40625
1782300378070,-0.425922,1.098306,8.821044,-0.179107,0.013217,0.24833,19.050001,-8.34375,-43.40625
1782300378079,-0.425922,1.098306,8.821044,-0.229808,0.025434,0.241,19.050001,-8.34375,-43.40625
1782300378080,-0.437887,0.928415,8.806687,-0.229808,0.025434,0.241,17.15625,-9.1875,-44.643753
1782300378086,-0.437887,0.928415,8.806687,-0.265849,0.029099,0.225728,17.15625,-9.1875,-44.643753
1782300378087,-0.48335,0.775275,8.787544,-0.265849,0.029099,0.225728,17.15625,-9.1875,-44.643753
1782300378088,-0.48335,0.775275,8.787544,-0.265849,0.029099,0.225728,17.15625,-9.1875,-44.643753
1782300378095,-0.452243,0.629312,8.758831,-0.298225,0.022991,0.208013,17.15625,-9.1875,-44.643753
1782300378106,-0.387637,0.461815,8.773187,-0.333655,0.019326,0.187855,17.85,-9.20625,-42.825001
1782300378109,-0.387637,0.461815,8.773187,-0.333655,0.019326,0.187855,17.85,-8.45625,-43.875
1782300378112,-0.282353,0.299103,8.844972,-0.370918,0.002832,0.171361,17.85,-8.45625,-43.875
1782300378119,-0.282353,0.299103,8.844972,-0.370918,0.002832,0.171361,18.0,-8.606251,-43.725002
1782300378121,-0.129212,0.189033,9.07229,-0.40085,-0.027711,0.165864,18.0,-8.606251,-43.725002
1782300378130,0.026321,0.174676,9.292429,-0.416122,-0.052757,0.165253,19.35,-8.493751,-43.106251
1782300378140,0.145962,0.148355,9.53889,-0.40024,-0.054589,0.173805,18.431252,-7.875,-43.706253
1782300378146,0.263211,0.107677,9.672888,-0.345873,-0.028933,0.189687,18.431252,-7.875,-43.706253
1782300378148,0.263211,0.107677,9.672888,-0.345873,-0.028933,0.189687,20.0625,-6.73125,-43.856251
1782300378155,0.260818,0.035892,9.739888,-0.258519,0.023602,0.201905,20.0625,-6.73125,-43.856251
1782300378159,0.260818,0.035892,9.739888,-0.258519,0.023602,0.201905,18.825001,-5.98125,-43.837502
1782300378163,0.215354,0.062213,9.66571,-0.141233,0.058421,0.208624,18.825001,-5.98125,-43.837502
1782300378169,0.215354,0.062213,9.66571,-0.141233,0.058421,0.208624,19.012501,-7.89375,-42.956253
1782300378172,0.107677,0.165105,9.404892,-0.008064,0.060864,0.207402,19.012501,-7.89375,-42.956253
1782300378178,0.107677,0.165105,9.404892,-0.008064,0.060864,0.207402,19.25625,-7.03125,-42.037502
1782300378181,0.01675,0.346959,8.990934,0.115941,0.032765,0.200683,19.25625,-7.03125,-42.037502
1782300378190,-0.083749,0.507278,8.531512,0.213679,-0.022213,0.189077,19.481251,-8.34375,-42.65625
1782300378200,-0.114855,0.660419,8.050555,0.262549,-0.089408,0.173805,19.59375,-7.4625,-42.337502
1782300378206,-0.114855,0.660419,8.050555,0.250331,-0.16149,0.161588,19.59375,-7.4625,-42.337502
1782300378207,-0.165105,0.832702,7.66531,0.250331,-0.16149,0.161588,19.59375,-7.4625,-42.337502
1782300378214,-0.165105,0.832702,7.66531,0.250331,-0.16149,0.161588,19.06875,-9.075001,-43.725002
1782300378216,-0.172283,1.009771,7.536098,0.184969,-0.216468,0.155479,19.06875,-9.075001,-43.725002
1782300378219,-0.172283,1.009771,7.536098,0.184969,-0.216468,0.155479,20.700001,-8.962501,-42.356251
1782300378225,-0.162712,1.088734,7.51217,0.090285,-0.233572,0.154868,20.700001,-8.962501,-42.356251
1782300378229,-0.162712,1.088734,7.51217,0.090285,-0.233572,0.154868,18.900002,-8.925,-43.125
1782300378234,-0.141177,1.067199,7.598311,-0.009286,-0.239681,0.151814,18.900002,-8.925,-43.125
1782300378238,-0.141177,1.067199,7.598311,-0.009286,-0.239681,0.151814,17.90625,-9.1875,-44.943752
1782300378241,-0.098106,1.002593,7.832808,-0.093586,-0.230518,0.144483,17.90625,-9.1875,-44.943752
1782300378250,-0.066999,0.942772,8.163018,-0.13879,-0.207916,0.13471,18.393751,-8.34375,-42.206253
1782300378259,-0.066999,0.942772,8.163018,-0.135735,-0.169432,0.117605,18.393751,-8.34375,-42.206253
1782300378260,-0.038285,0.940379,8.438192,-0.135735,-0.169432,0.117605,17.38125,-6.975,-44.606251
1782300378266,-0.038285,0.940379,8.438192,-0.094196,-0.121173,0.095003,17.38125,-6.975,-44.606251
1782300378267,-0.088534,0.973879,8.490835,-0.094196,-0.121173,0.095003,17.38125,-6.975,-44.606251
1782300378268,-0.088534,0.973879,8.490835,-0.094196,-0.121173,0.095003,20.0625,-7.4625,-42.806252
1782300378275,-0.141177,1.038485,8.414264,-0.034332,-0.101015,0.070569,20.0625,-7.4625,-42.806252
1782300378279,-0.141177,1.038485,8.414264,-0.034332,-0.101015,0.070569,17.025002,-8.175,-42.056252
1782300378284,-0.191426,1.074377,8.335301,0.020035,-0.101015,0.043691,17.025002,-8.175,-42.056252
1782300378290,-0.191426,1.074377,8.335301,0.020035,-0.101015,0.043691,18.150002,-7.725,-44.325001
1782300378292,-0.215354,1.07677,8.368801,0.066461,-0.114454,0.012537,18.150002,-7.725,-44.325001
1782300378299,-0.215354,1.07677,8.368801,0.066461,-0.114454,0.012537,19.462502,-7.6125,-42.956253
1782300378301,-0.196211,1.086342,8.440585,0.103113,-0.134002,-0.021672,19.462502,-7.6125,-42.956253
1782300378313,-0.162712,1.148555,8.586547,0.131824,-0.146219,-0.056491,17.325001,-7.74375,-42.037502
1782300378319,-0.162712,1.148555,8.586547,0.152593,-0.137056,-0.086423,17.325001,-7.74375,-42.037502
1782300378320,-0.133998,1.277767,8.74926,0.152593,-0.137056,-0.086423,18.13125,-9.225,-42.356251
1782300378326,-0.133998,1.277767,8.74926,0.172141,-0.1114,-0.10536,18.13125,-9.225,-42.356251
1782300378327,-0.131605,1.416551,8.909578,0.172141,-0.1114,-0.10536,18.13125,-9.225,-42.356251
1782300378328,-0.131605,1.416551,8.909578,0.172141,-0.1114,-0.10536,17.2875,-6.4125,-42.337502
1782300378335,-0.100499,1.524228,9.019648,0.184969,-0.071082,-0.11208,17.2875,-6.4125,-42.337502
1782300378340,-0.100499,1.524228,9.019648,0.184969,-0.071082,-0.11208,16.25625,-7.425,-42.037502
1782300378344,-0.09332,1.557728,9.108182,0.184358,-0.024046,-0.114523,16.25625,-7.425,-42.037502
1782300378349,-0.09332,1.557728,9.108182,0.184358,-0.024046,-0.114523,17.887501,-6.8625,-41.887501
1782300378352,-0.090927,1.557728,9.323536,0.168475,0.022991,-0.113302,17.887501,-6.8625,-41.887501
1782300378358,-0.090927,1.557728,9.323536,0.168475,0.022991,-0.113302,17.643751,-6.84375,-43.40625
1782300378361,-0.12682,1.543371,9.581961,0.144652,0.059643,-0.113302,17.643751,-6.84375,-43.40625
1782300378369,-0.12682,1.543371,9.581961,0.120828,0.08591,-0.113302,19.275002,-7.4625,-42.037502
1782300378370,-0.205783,1.526621,9.969598,0.120828,0.08591,-0.113302,19.275002,-7.4625,-42.037502
1782300378379,-0.265603,1.540978,10.424235,0.120828,0.08591,-0.113302,19.275002,-7.4625,-42.037502
1782300378380,-0.265603,1.540978,10.424235,0.107389,0.112177,-0.109636,19.03125,-8.625,-42.956253
1782300378387,-0.320638,1.531407,10.823836,0.112276,0.134168,-0.104139,19.03125,-8.625,-42.956253
1782300378388,-0.320638,1.531407,10.823836,0.112276,0.134168,-0.104139,19.40625,-6.88125,-41.887501
1782300378396,-0.323031,1.505085,11.139689,0.132434,0.132336,-0.098641,19.40625,-6.88125,-41.887501
1782300378398,-0.323031,1.505085,11.139689,0.132434,0.132336,-0.098641,19.293751,-8.493751,-41.737503
1782300378404,-0.258425,1.476372,11.335901,0.163589,0.113399,-0.09131,19.293751,-8.493751,-41.737503
1782300378409,-0.258425,1.476372,11.335901,0.163589,0.113399,-0.09131,20.043751,-7.03125,-43.106251
1782300378412,-0.205783,1.414158,11.501005,0.204516,0.081023,-0.079093,20.043751,-7.03125,-43.106251
1782300378418,-0.205783,1.414158,11.501005,0.204516,0.081023,-0.079093,20.025002,-6.73125,-42.337502
1782300378421,-0.165105,1.301695,11.673289,0.250331,0.063919,-0.061989,20.025002,-6.73125,-42.337502
1782300378428,-0.165105,1.301695,11.673289,0.250331,0.063919,-0.061989,18.7875,-7.4625,-40.96875
1782300378429,-0.043071,1.146162,11.728323,0.293703,0.076136,-0.046717,18.7875,-7.4625,-40.96875
1782300378440,0.0335,1.012164,11.757037,0.320581,0.098127,-0.036333,18.84375,-9.975,-40.556252
1782300378446,0.0335,1.012164,11.757037,0.336463,0.103014,-0.036943,18.84375,-9.975,-40.556252
1782300378447,0.052642,0.997807,11.824036,0.336463,0.103014,-0.036943,18.84375,-9.975,-40.556252
1782300378449,0.052642,0.997807,11.824036,0.336463,0.103014,-0.036943,19.650002,-9.243751,-42.356251
1782300378455,0.043071,1.107877,11.862321,0.346237,0.09324,-0.04183,19.650002,-9.243751,-42.356251
1782300378458,0.043071,1.107877,11.862321,0.346237,0.09324,-0.04183,20.475,-8.6625,-40.837502
1782300378464,-0.021535,1.311267,11.795322,0.357844,0.070027,-0.053437,20.475,-8.6625,-40.837502
1782300378469,-0.021535,1.311267,11.795322,0.357844,0.070027,-0.053437,20.625,-8.962501,-40.237503
1782300378472,-0.021535,1.311267,11.795322,0.365785,0.031543,-0.067487,20.625,-8.962501,-40.237503
1782300378473,-0.057428,1.433301,11.587146,0.365785,0.031543,-0.067487,20.625,-8.962501,-40.237503
1782300378478,-0.057428,1.433301,11.587146,0.365785,0.031543,-0.067487,20.53125,-8.6625,-42.206253
1782300378482,0.004786,1.514657,11.280865,0.350513,-0.022824,-0.083369,20.53125,-8.6625,-42.206253
1782300378488,0.004786,1.514657,11.280865,0.350513,-0.022824,-0.083369,20.53125,-10.14375,-41.15625
1782300378490,0.114855,1.598405,11.053547,0.304698,-0.077802,-0.106582,20.53125,-10.14375,-41.15625
1782300378500,0.200997,1.710868,10.845372,0.232005,-0.121784,-0.138347,19.650002,-7.35,-39.618752
1782300378507,0.200997,1.710868,10.845372,0.138543,-0.145608,-0.17561,19.650002,-7.35,-39.618752
1782300378508,0.31346,1.770689,10.632411,0.138543,-0.145608,-0.17561,19.575001,-8.512501,-40.987503
1782300378524,0.528814,1.363909,10.4027,-0.122296,-0.193866,-0.248914,20.925001,-7.63125,-41.4375
1782300378529,0.528814,1.363909,10.4027,-0.122296,-0.193866,-0.248914,20.456251,-10.70625,-42.825001
1782300378533,0.595813,0.92363,10.744874,-0.278067,-0.238459,-0.281289,20.456251,-10.70625,-42.825001
1782300378538,0.595813,0.92363,10.744874,-0.278067,-0.238459,-0.281289,20.456251,-10.70625,-42.825001
1782300378541,0.672383,0.480957,11.429221,-0.419787,-0.263505,-0.306946,20.456251,-10.70625,-42.825001
1782300378549,0.672383,0.480957,11.429221,-0.419787,-0.263505,-0.306946,19.3125,-8.493751,-42.056252
1782300378550,0.68674,0.105284,12.206888,-0.508974,-0.243957,-0.327104,19.3125,-8.493751,-42.056252
1782300378560,0.684347,-0.095713,12.592132,-0.526078,-0.187758,-0.338711,21.50625,-7.65,-40.818752
1782300378567,0.691526,-0.172283,12.659132,-0.469267,-0.129725,-0.344819,21.50625,-7.65,-40.818752
1782300378568,0.691526,-0.172283,12.659132,-0.469267,-0.129725,-0.344819,21.50625,-7.65,-40.818752
1782300378576,0.713061,-0.064606,12.333707,-0.347094,-0.061309,-0.342376,21.50625,-7.65,-40.818752
1782300378578,0.713061,-0.064606,12.333707,-0.347094,-0.061309,-0.342376,21.31875,-7.06875,-40.518753
1782300378584,0.665205,0.12682,11.656539,-0.177274,-0.003887,-0.333213,21.31875,-7.06875,-40.518753
1782300378590,0.665205,0.12682,11.656539,-0.177274,-0.003887,-0.333213,21.84375,-8.981251,-40.537502
1782300378592,0.665205,0.12682,11.656539,-0.002567,0.039484,-0.316109,21.84375,-8.981251,-40.537502
1782300378593,0.624527,0.385244,10.761623,-0.002567,0.039484,-0.316109,21.84375,-8.981251,-40.537502
1782300378598,0.624527,0.385244,10.761623,-0.002567,0.039484,-0.316109,20.025002,-7.48125,-42.037502
1782300378601,0.607777,0.641276,9.883457,0.137932,0.060253,-0.300837,20.025002,-7.48125,-42.037502
1782300378608,0.607777,0.641276,9.883457,0.137932,0.060253,-0.300837,21.731251,-5.7375,-40.5
1782300378610,0.543171,0.808774,9.323536,0.224675,0.051701,-0.292285,21.731251,-5.7375,-40.5
1782300378623,0.492921,1.007378,9.065112,0.258273,0.039484,-0.288009,21.975,-7.35,-41.4375
1782300378627,0.409173,1.174876,8.974185,0.241779,0.025434,-0.291063,21.975,-7.35,-41.4375
1782300378628,0.409173,1.174876,8.974185,0.241779,0.025434,-0.291063,20.606251,-6.75,-41.737503
1782300378635,0.409173,1.174876,8.974185,0.177638,-0.003276,-0.290452,20.606251,-6.75,-41.737503
1782300378636,0.301496,1.28016,8.986148,0.177638,-0.003276,-0.290452,20.606251,-6.75,-41.737503
1782300378638,0.301496,1.28016,8.986148,0.177638,-0.003276,-0.290452,22.237501,-6.91875,-40.818752
1782300378644,0.241675,1.330409,9.158432,0.074402,-0.034431,-0.281289,22.237501,-6.91875,-40.818752
1782300378650,0.241675,1.330409,9.158432,0.074402,-0.034431,-0.281289,22.575001,-8.55,-40.237503
1782300378653,0.301496,1.229911,9.302002,-0.044105,-0.032598,-0.268461,22.575001,-8.55,-40.237503
1782300378659,0.301496,1.229911,9.302002,-0.044105,-0.032598,-0.268461,21.112501,-4.10625,-41.400002
1782300378661,0.397209,1.050449,9.357036,-0.155283,0.004054,-0.257466,21.112501,-4.10625,-41.400002
1782300378668,0.397209,1.050449,9.357036,-0.155283,0.004054,-0.257466,21.0,-6.46875,-40.518753
1782300378670,0.547956,0.842274,9.292429,-0.244469,0.052923,-0.247692,21.0,-6.46875,-40.518753
1782300378680,0.660419,0.68674,9.201502,-0.304945,0.101792,-0.237918,22.181252,-4.85625,-41.100002
1782300378687,0.717847,0.495314,9.179967,-0.339153,0.138444,-0.231809,22.181252,-4.85625,-41.100002
1782300378688,0.717847,0.495314,9.179967,-0.339153,0.138444,-0.231809,22.5,-6.0375,-40.5
1782300378696,0.722632,0.301496,9.244573,-0.346484,0.156159,-0.228144,22.5,-6.0375,-40.5
1782300378699,0.722632,0.301496,9.244573,-0.346484,0.156159,-0.228144,21.7875,-7.06875,-40.518753
1782300378704,0.696311,0.12682,9.383358,-0.330601,0.145164,-0.233031,21.7875,-7.06875,-40.518753
1782300378717,0.614955,0.047856,9.488641,-0.298225,0.120729,-0.239751,21.900002,-5.15625,-41.100002
1782300378718,0.614955,0.047856,9.488641,-0.298225,0.120729,-0.239751,22.03125,-4.25625,-41.700001
1782300378721,0.519243,0.055035,9.500605,-0.251189,0.090797,-0.247081,22.03125,-4.25625,-41.700001
1782300378728,0.519243,0.055035,9.500605,-0.251189,0.090797,-0.247081,23.081251,-5.75625,-40.200001
1782300378730,0.433101,0.107677,9.428821,-0.194378,0.074914,-0.249524,23.081251,-5.75625,-40.200001
1782300378740,0.366102,0.215354,9.261323,-0.136957,0.070027,-0.247692,22.893751,-3.69375,-40.78125
1782300378747,0.31346,0.358923,8.986148,-0.078925,0.082855,-0.240361,22.893751,-3.69375,-40.78125
1782300378748,0.31346,0.358923,8.986148,-0.078925,0.082855,-0.240361,23.793751,-5.04375,-39.431252
1782300378756,0.294317,0.502493,8.627225,-0.029445,0.101792,-0.227533,23.793751,-5.04375,-39.431252
1782300378758,0.294317,0.502493,8.627225,-0.029445,0.101792,-0.227533,22.743752,-3.54375,-40.931252
1782300378765,0.251246,0.605384,8.282659,0.007207,0.125616,-0.209207,22.743752,-3.54375,-40.931252
1782300378769,0.251246,0.605384,8.282659,0.007207,0.125616,-0.209207,21.1875,-3.525,-39.881252
1782300378773,0.236889,0.72024,7.976378,0.02309,0.143942,-0.193936,21.1875,-3.525,-39.881252
1782300378779,0.236889,0.72024,7.976378,0.02309,0.143942,-0.193936,23.306252,-3.1125,-40.331253
1782300378782,0.184247,0.739382,7.729917,0.02309,0.151883,-0.184162,23.306252,-3.1125,-40.331253
1782300378788,0.184247,0.739382,7.729917,0.02309,0.151883,-0.184162,24.487501,-3.28125,-39.112503
1782300378790,0.131605,0.760918,7.624632,0.013316,0.139055,-0.176221,24.487501,-3.28125,-39.112503
1782300378800,0.088534,0.806381,7.694024,0.002931,0.103625,-0.174999,23.34375,-3.1125,-41.381252
1782300378807,0.026321,0.878166,7.828023,0.005375,0.058421,-0.177442,23.34375,-3.1125,-41.381252
1782300378808,0.026321,0.878166,7.828023,0.005375,0.058421,-0.177442,24.543751,-5.04375,-39.131252
1782300378816,-0.045464,0.985843,7.923735,0.021257,0.000389,-0.17561,24.543751,-5.04375,-39.131252
1782300378818,-0.045464,0.985843,7.923735,0.021257,0.000389,-0.17561,24.731251,-4.1625,-41.100002
1782300378833,-0.131605,1.15334,8.029019,0.064628,-0.070472,-0.149953,23.456251,-4.0125,-39.431252
1782300378838,-0.131605,1.15334,8.029019,0.064628,-0.070472,-0.149953,25.462502,-3.13125,-41.081253
1782300378841,-0.131605,1.15334,8.029019,0.078067,-0.068639,-0.131017,25.462502,-3.13125,-41.081253
1782300378842,-0.141177,1.20359,8.05534,0.078067,-0.068639,-0.131017,25.462502,-3.13125,-41.081253
1782300378849,-0.141177,1.20359,8.05534,0.078067,-0.068639,-0.131017,25.293751,-3.58125,-40.181252
1782300378850,-0.119641,1.251446,8.029019,0.079289,-0.04787,-0.112691,25.293751,-3.58125,-40.181252
1782300378860,-0.112463,1.304088,8.026627,0.071348,-0.024657,-0.093754,23.400002,-1.8,-39.862503
1782300378867,-0.112463,1.304088,8.026627,0.060352,0.002832,-0.074817,23.400002,-1.8,-39.862503
1782300378868,-0.057428,1.387837,8.096018,0.060352,0.002832,-0.074817,24.356251,-3.43125,-39.5625
1782300378876,-0.057428,1.387837,8.096018,0.054855,0.040095,-0.057713,24.356251,-3.43125,-39.5625
1782300378877,0.01675,1.418944,8.21566,0.054855,0.040095,-0.057713,24.356251,-3.43125,-39.5625
1782300378879,0.01675,1.418944,8.21566,0.054855,0.040095,-0.057713,25.050001,-2.7,-38.493752
1782300378885,0.052642,1.363909,8.380765,0.054244,0.069416,-0.042441,25.050001,-2.7,-38.493752
1782300378890,0.052642,1.363909,8.380765,0.054244,0.069416,-0.042441,24.956251,-2.55,-40.481251
1782300378893,0.102891,1.368695,8.629618,0.05852,0.077358,-0.031446,24.956251,-2.55,-40.481251
1782300378899,0.102891,1.368695,8.629618,0.05852,0.077358,-0.031446,25.087502,-2.7,-39.5625
1782300378902,0.12682,1.411765,8.828222,0.069515,0.077969,-0.023504,25.087502,-2.7,-39.5625
1782300378908,0.12682,1.411765,8.828222,0.069515,0.077969,-0.023504,25.06875,-3.15,-38.8125
1782300378910,0.177069,1.423729,9.01247,0.084176,0.081023,-0.014952,25.06875,-3.15,-38.8125
1782300378920,0.215354,1.39023,9.144075,0.101891,0.08591,-0.010676,25.893751,-3.13125,-40.78125
1782300378928,0.217747,1.392623,9.227824,0.117774,0.076136,-0.010676,25.387501,-3.45,-38.512501
1782300378936,0.217747,1.469193,9.304394,0.126326,0.063308,-0.011287,25.387501,-3.45,-38.512501
1782300378939,0.217747,1.469193,9.304394,0.126326,0.063308,-0.011287,26.325001,-2.85,-40.162502
1782300378945,0.205783,1.586441,9.371393,0.130602,0.052312,-0.013731,26.325001,-2.85,-40.162502
1782300378949,0.205783,1.586441,9.371393,0.130602,0.052312,-0.013731,27.975,-2.4375,-40.3125
1782300378953,0.193819,1.672583,9.404892,0.137932,0.03643,-0.014952,27.975,-2.4375,-40.3125
1782300378959,0.193819,1.672583,9.404892,0.137932,0.03643,-0.014952,26.343752,-4.03125,-39.431252
1782300378961,0.193819,1.737189,9.373786,0.148317,0.026045,-0.014341,26.343752,-4.03125,-39.431252
1782300378968,0.193819,1.737189,9.373786,0.148317,0.026045,-0.014341,25.987501,-2.86875,-39.112503
1782300378970,0.198604,1.722832,9.383358,0.156258,0.023602,-0.014341,25.987501,-2.86875,-39.112503
1782300378979,0.198604,1.722832,9.383358,0.158091,0.02238,-0.014952,25.987501,-2.86875,-39.112503
1782300378980,0.198604,1.718047,9.529319,0.158091,0.02238,-0.014952,25.687502,-3.3,-38.662502
1782300378988,0.193819,1.696511,9.806887,0.156258,0.025434,-0.014952,25.650002,-2.56875,-38.643753
1782300378996,0.18664,1.694118,10.180167,0.159312,0.035819,-0.01312,25.650002,-2.56875,-38.643753
1782300378999,0.18664,1.694118,10.180167,0.159312,0.035819,-0.01312,25.44375,-3.13125,-40.78125
1782300379004,0.18664,1.694118,10.180167,0.169086,0.057199,-0.005789,25.44375,-3.13125,-40.78125
1782300379005,0.177069,1.651048,10.498413,0.169086,0.057199,-0.005789,25.44375,-3.13125,-40.78125
1782300379009,0.177069,1.651048,10.498413,0.169086,0.057199,-0.005789,25.44375,-3.13125,-40.78125
1782300379014,0.162712,1.529014,10.804694,0.189245,0.081023,0.007039,25.44375,-3.13125,-40.78125
1782300379018,0.162712,1.529014,10.804694,0.189245,0.081023,0.007039,26.137501,-2.71875,-39.262501
1782300379022,0.141177,1.385444,11.101404,0.216123,0.104236,0.027197,26.137501,-2.71875,-39.262501
1782300379031,0.107677,1.239482,11.41965,0.246666,0.118286,0.053465,26.906252,-3.46875,-39.262501
1782300379040,0.052642,1.146162,11.697217,0.280875,0.130503,0.087062,26.737501,-4.05,-37.912502
1782300379049,-0.004786,1.107877,11.800108,0.318748,0.14272,0.121881,26.737501,-4.05,-37.912502
1782300379050,-0.004786,1.107877,11.800108,0.318748,0.14272,0.121881,27.956251,-3.76875,-38.512501
1782300379057,-0.062213,1.15334,11.821643,0.3554,0.148829,0.152425,27.956251,-3.76875,-38.512501
1782300379058,-0.062213,1.15334,11.821643,0.3554,0.148829,0.152425,26.812502,-1.25625,-38.493752
1782300379065,-0.117248,1.265803,11.642182,0.384111,0.140888,0.175638,26.812502,-1.25625,-38.493752
1782300379069,-0.117248,1.265803,11.642182,0.384111,0.140888,0.175638,27.50625,-4.06875,-38.362503
1782300379074,-0.191426,1.40698,11.453148,0.396939,0.096295,0.189687,27.50625,-4.06875,-38.362503
1782300379079,-0.191426,1.40698,11.453148,0.396939,0.096295,0.189687,28.312502,-4.65,-39.431252
1782300379082,-0.320638,1.51705,11.311972,0.386554,0.025434,0.19824,28.312502,-4.65,-39.431252
1782300379088,-0.320638,1.51705,11.311972,0.386554,0.025434,0.19824,28.425001,-4.51875,-38.212502
1782300379091,-0.447458,1.658226,11.237794,0.354789,-0.064974,0.211068,28.425001,-4.51875,-38.212502
1782300379100,-0.569492,1.832902,11.209081,0.303477,-0.137056,0.222674,27.225,-4.2,-38.8125
1782300379109,-0.672383,1.98365,11.099011,0.238114,-0.184092,0.230615,28.481251,-4.2,-40.03125
1782300379116,-0.717847,2.050649,11.012869,0.161145,-0.201197,0.237335,28.481251,-4.2,-40.03125
1782300379118,-0.717847,2.050649,11.012869,0.161145,-0.201197,0.237335,27.731251,-4.93125,-39.581253
1782300379125,-0.708275,1.971686,10.926728,0.071348,-0.195088,0.242222,27.731251,-4.93125,-39.581253
1782300379129,-0.708275,1.971686,10.926728,0.071348,-0.195088,0.242222,28.762501,-4.51875,-39.28125
1782300379137,-0.629312,1.679762,10.931513,-0.048992,-0.191423,0.248941,28.762501,-4.51875,-39.28125
1782300379139,-0.629312,1.679762,10.931513,-0.048992,-0.191423,0.248941,27.187502,-3.76875,-38.212502
1782300379142,-0.478565,1.311267,11.180367,-0.199265,-0.217079,0.253828,27.187502,-3.76875,-38.212502
1782300379148,-0.478565,1.311267,11.180367,-0.199265,-0.217079,0.253828,26.343752,-3.6,-39.881252
1782300379150,-0.346959,0.909273,11.71636,-0.356257,-0.251288,0.253828,26.343752,-3.6,-39.881252
1782300379159,-0.346959,0.909273,11.71636,-0.483928,-0.250066,0.253217,26.343752,-3.6,-39.881252
1782300379160,-0.20339,0.547956,12.283458,-0.483928,-0.250066,0.253217,27.187502,-3.76875,-38.212502
1782300379169,-0.07657,0.224925,12.541883,-0.550512,-0.221966,0.250163,27.243752,-3.75,-40.03125
1782300379176,0.019143,0.045464,12.508383,-0.546236,-0.19631,0.247109,27.243752,-3.75,-40.03125
1782300379179,0.019143,0.045464,12.508383,-0.546236,-0.19631,0.247109,26.025002,-4.03125,-39.112503
1782300379185,0.059821,0.004786,12.18296,-0.468657,-0.178595,0.245887,26.025002,-4.03125,-39.112503
1782300379190,0.059821,0.004786,12.18296,-0.468657,-0.178595,0.245887,27.6,-4.05,-40.950001
1782300379193,0.095713,0.078963,11.591933,-0.333045,-0.160269,0.24772,27.6,-4.05,-40.950001
1782300379199,0.095713,0.078963,11.591933,-0.333045,-0.160269,0.24772,27.993752,-2.41875,-41.081253
1782300379202,0.07657,0.217747,10.871693,-0.180328,-0.127282,0.249552,27.993752,-2.41875,-41.081253
1782300379208,0.07657,0.217747,10.871693,-0.180328,-0.127282,0.249552,27.675001,-3.76875,-39.262501
1782300379210,0.002393,0.394816,10.230417,-0.039219,-0.072915,0.248941,27.675001,-3.76875,-39.262501
1782300379219,0.002393,0.394816,10.230417,0.068905,-0.004498,0.246498,27.675001,-3.76875,-39.262501
1782300379220,-0.100499,0.612563,9.69921,0.068905,-0.004498,0.246498,26.587502,-2.41875,-39.5625
1782300379229,-0.193819,0.861416,9.278073,0.126937,0.062086,0.244665,27.806252,-3.31875,-39.112503
1782300379238,-0.291924,1.091127,8.967006,0.124493,0.110955,0.24772,27.806252,-3.31875,-39.112503
1782300379239,-0.291924,1.091127,8.967006,0.124493,0.110955,0.24772,28.237501,-1.85625,-39.862503
1782300379245,-0.378066,1.198804,8.804294,0.070126,0.127449,0.258104,28.237501,-1.85625,-39.862503
1782300379249,-0.378066,1.198804,8.804294,0.070126,0.127449,0.258104,26.606251,-2.71875,-39.5625
1782300379254,-0.4666,1.20359,8.895221,-0.012951,0.129892,0.275208,26.606251,-2.71875,-39.5625
1782300379259,-0.4666,1.20359,8.895221,-0.012951,0.129892,0.275208,27.993752,-3.46875,-40.03125
1782300379262,-0.557528,1.083949,9.084254,-0.092975,0.144553,0.294756,27.993752,-3.46875,-40.03125
1782300379268,-0.557528,1.083949,9.084254,-0.092975,0.144553,0.294756,28.237501,-2.5875,-39.112503
1782300379270,-0.557528,1.083949,9.084254,-0.157115,0.162879,0.314915,28.237501,-2.5875,-39.112503
1782300379271,-0.655633,0.899701,9.258931,-0.157115,0.162879,0.314915,28.237501,-2.5875,-39.112503
1782300379279,-0.655633,0.899701,9.258931,-0.204152,0.175707,0.330186,28.237501,-2.5875,-39.112503
1782300379280,-0.722632,0.72024,9.366607,-0.204152,0.175707,0.330186,27.525002,-3.61875,-39.112503
1782300379290,-0.736989,0.552742,9.440785,-0.234084,0.17815,0.33996,28.875002,-3.3375,-39.412502
1782300379297,-0.68674,0.368495,9.488641,-0.2518,0.159824,0.341793,28.875002,-3.3375,-39.412502
1782300379299,-0.68674,0.368495,9.488641,-0.2518,0.159824,0.341793,29.94375,-2.75625,-40.012501
1782300379305,-0.531207,0.253639,9.546069,-0.260962,0.134779,0.338128,29.94375,-2.75625,-40.012501
1782300379309,-0.531207,0.253639,9.546069,-0.260962,0.134779,0.338128,30.093752,-2.90625,-39.862503
1782300379315,-0.382852,0.172283,9.584354,-0.264017,0.098127,0.329575,30.093752,-2.90625,-39.862503
1782300379319,-0.382852,0.172283,9.584354,-0.264017,0.098127,0.329575,28.875002,-4.0875,-38.362503
1782300379322,-0.382852,0.172283,9.584354,-0.253021,0.047425,0.319191,28.875002,-4.0875,-38.362503
1782300379323,-0.241675,0.12682,9.608283,-0.253021,0.047425,0.319191,28.875002,-4.0875,-38.362503
1782300379329,-0.241675,0.12682,9.608283,-0.253021,0.047425,0.319191,28.425001,-3.1875,-39.5625
1782300379331,-0.107677,0.143569,9.579568,-0.220035,-0.007553,0.308806,28.425001,-3.1875,-39.5625
1782300379340,-0.021535,0.222533,9.38575,-0.168722,-0.053978,0.299643,30.88125,-4.0875,-39.881252
1782300379349,-0.021535,0.222533,9.38575,-0.102138,-0.092463,0.295978,30.88125,-4.0875,-39.881252
1782300379350,0.050249,0.344566,9.062719,-0.102138,-0.092463,0.295978,28.293751,-1.8375,-41.231251
1782300379357,0.064606,0.454636,8.699009,-0.03311,-0.123006,0.292924,28.293751,-1.8375,-41.231251
1782300379358,0.064606,0.454636,8.699009,-0.03311,-0.123006,0.292924,30.543751,-3.50625,-39.5625
1782300379365,0.100499,0.543171,8.344872,0.029198,-0.152327,0.293534,30.543751,-3.50625,-39.5625
1782300379369,0.100499,0.543171,8.344872,0.029198,-0.152327,0.293534,28.593752,-2.8875,-40.481251
1782300379374,0.11007,0.622134,8.076876,0.071348,-0.171264,0.295367,28.593752,-2.8875,-40.481251
1782300379379,0.11007,0.622134,8.076876,0.071348,-0.171264,0.295367,30.243752,-3.50625,-39.5625
1782300379382,0.148355,0.768096,7.921342,0.088452,-0.162712,0.2972,30.243752,-3.50625,-39.5625
1782300379388,0.148355,0.768096,7.921342,0.088452,-0.162712,0.2972,27.956251,-3.76875,-38.212502
1782300379391,0.18664,0.916451,7.780166,0.090285,-0.126671,0.296589,27.956251,-3.76875,-38.212502
1782300379400,0.198604,1.033699,7.648561,0.082954,-0.082078,0.292924,29.212502,-3.4875,-40.331253
1782300379409,0.205783,1.119841,7.52892,0.064628,-0.049091,0.284982,29.325001,-2.30625,-39.862503
1782300379417,0.217747,1.15334,7.562419,0.031031,-0.050313,0.272765,29.325001,-2.30625,-39.862503
1782300379418,0.217747,1.15334,7.562419,0.031031,-0.050313,0.272765,29.175001,-2.00625,-40.3125
1782300379425,0.217747,1.15334,7.562419,-0.011119,-0.078413,0.253828,29.175001,-2.00625,-40.3125
1782300379426,0.172283,1.162912,7.77538,-0.011119,-0.078413,0.253828,29.175001,-2.00625,-40.3125
1782300379429,0.172283,1.162912,7.77538,-0.011119,-0.078413,0.253828,30.581251,-4.2375,-39.581253
1782300379434,0.12682,1.182054,8.143875,-0.044105,-0.127282,0.231837,30.581251,-4.2375,-39.581253
1782300379440,0.12682,1.182054,8.143875,-0.044105,-0.127282,0.231837,29.925001,-2.45625,-39.5625
1782300379450,0.119641,1.217947,8.500406,-0.050825,-0.177373,0.209846,29.531252,-3.1875,-40.78125
1782300379451,0.119641,1.237089,8.720545,-0.034943,-0.220744,0.1848,29.531252,-3.1875,-40.78125
1782300379459,0.131605,1.244268,8.727724,0.002931,-0.256174,0.160366,29.493752,-3.7875,-39.262501
1782300379469,0.162712,1.289731,8.610475,0.047524,-0.287329,0.134099,30.093752,-3.6375,-39.412502
1782300379477,0.198604,1.330409,8.375979,0.089674,-0.310541,0.108442,30.093752,-3.6375,-39.412502
1782300379478,0.198604,1.330409,8.375979,0.089674,-0.310541,0.108442,30.093752,-3.6375,-39.412502
1782300379485,0.200997,1.35673,8.241981,0.121439,-0.311763,0.081564,30.093752,-3.6375,-39.412502
1782300379488,0.200997,1.35673,8.241981,0.121439,-0.311763,0.081564,29.38125,-2.5875,-41.681252
1782300379494,0.227318,1.359123,8.244374,0.140987,-0.292826,0.056519,29.38125,-2.5875,-41.681252
1782300379500,0.227318,1.359123,8.244374,0.140987,-0.292826,0.056519,29.512501,-3.1875,-40.331253
1782300379502,0.256032,1.383052,8.414264,0.151371,-0.261061,0.032084,29.512501,-3.1875,-40.331253
1782300379508,0.256032,1.383052,8.414264,0.151371,-0.261061,0.032084,29.512501,-3.1875,-40.331253
1782300379511,0.27996,1.40698,8.634404,0.15748,-0.219523,0.008871,29.512501,-3.1875,-40.331253
1782300379518,0.27996,1.40698,8.634404,0.15748,-0.219523,0.008871,28.63125,-2.56875,-41.681252
1782300379519,0.27996,1.40698,8.634404,0.161756,-0.17554,-0.011898,28.63125,-2.56875,-41.681252
1782300379520,0.306281,1.457229,8.818651,0.161756,-0.17554,-0.011898,28.63125,-2.56875,-41.681252
1782300379529,0.306281,1.457229,8.818651,0.167254,-0.14011,-0.02778,28.63125,-2.56875,-41.681252
1782300379530,0.323031,1.524228,9.029219,0.167254,-0.14011,-0.02778,29.175001,-3.1875,-39.5625
1782300379537,0.346959,1.567299,9.194324,0.178249,-0.106513,-0.04183,29.175001,-3.1875,-39.5625
1782300379538,0.346959,1.567299,9.194324,0.178249,-0.106513,-0.04183,29.00625,-4.35,-42.0
1782300379547,0.358923,1.639084,9.294822,0.195354,-0.074137,-0.053437,29.00625,-4.35,-42.0
1782300379548,0.358923,1.639084,9.294822,0.195354,-0.074137,-0.053437,30.450001,-4.0875,-40.481251
1782300379554,0.325424,1.710868,9.378571,0.213069,-0.043594,-0.061989,30.450001,-4.0875,-40.481251
1782300379559,0.325424,1.710868,9.378571,0.213069,-0.043594,-0.061989,29.400002,-3.31875,-41.231251
1782300379562,0.325424,1.710868,9.378571,0.231395,-0.016715,-0.068098,29.400002,-3.31875,-41.231251
1782300379563,0.291924,1.751546,9.431214,0.231395,-0.016715,-0.068098,29.400002,-3.31875,-41.231251
1782300379568,0.291924,1.751546,9.431214,0.231395,-0.016715,-0.068098,28.031252,-3.16875,-41.081253
1782300379571,0.287139,1.753939,9.500605,0.246666,0.016882,-0.074206,28.031252,-3.16875,-41.081253
1782300379579,0.287139,1.753939,9.500605,0.246666,0.016882,-0.074206,30.150002,-3.6375,-40.931252
1782300379580,0.299103,1.734796,9.598712,0.255829,0.06453,-0.085202,30.150002,-3.6375,-40.931252
1782300379590,0.267996,1.710868,9.785351,0.261938,0.109123,-0.102917,29.306252,-1.55625,-40.462502
1782300379597,0.277567,1.710868,10.08924,0.265603,0.148829,-0.120021,29.306252,-1.55625,-40.462502
1782300379598,0.277567,1.710868,10.08924,0.265603,0.148829,-0.120021,28.762501,-2.7375,-40.78125
1782300379605,0.277567,1.710868,10.08924,0.26316,0.197698,-0.138347,28.762501,-2.7375,-40.78125
1782300379606,0.299103,1.722832,10.42902,0.26316,0.197698,-0.138347,28.762501,-2.7375,-40.78125
1782300379608,0.299103,1.722832,10.42902,0.26316,0.197698,-0.138347,29.212502,-3.4875,-40.331253
1782300379614,0.294317,1.698904,10.749659,0.251553,0.242902,-0.154229,29.212502,-3.4875,-40.331253
1782300379619,0.294317,1.698904,10.749659,0.251553,0.242902,-0.154229,28.668751,-4.35,-41.25
1782300379623,0.241675,1.65344,11.015262,0.227729,0.266115,-0.167669,28.668751,-4.35,-41.25
1782300379629,0.241675,1.65344,11.015262,0.227729,0.266115,-0.167669,29.75625,-4.35,-42.318752
1782300379632,0.22014,1.545763,11.304794,0.20024,0.282608,-0.179275,29.75625,-4.35,-42.318752
1782300379639,0.22014,1.545763,11.304794,0.20024,0.282608,-0.179275,28.837502,-3.45,-42.600002
1782300379647,0.18664,1.397408,11.613468,0.182525,0.302156,-0.193325,28.837502,-3.45,-42.600002
1782300379649,0.18664,1.397408,11.613468,0.184358,0.338197,-0.208596,28.837502,-3.45,-42.600002
1782300379650,0.112463,1.294517,11.857536,0.184358,0.338197,-0.208596,29.362501,-3.6375,-39.881252
1782300379657,0.064606,1.292124,11.936499,0.202073,0.377292,-0.226922,29.362501,-3.6375,-39.881252
1782300379658,0.064606,1.292124,11.936499,0.202073,0.377292,-0.226922,30.993752,-2.775,-40.012501
1782300379666,-0.011964,1.428515,11.85275,0.230784,0.400505,-0.247692,30.993752,-2.775,-40.012501
1782300379668,-0.011964,1.428515,11.85275,0.230784,0.400505,-0.247692,29.212502,-3.4875,-40.03125
1782300379674,-0.043071,1.646262,11.606289,0.268046,0.391953,-0.26785,29.212502,-3.4875,-40.03125
1782300379679,-0.043071,1.646262,11.606289,0.268046,0.391953,-0.26785,29.718752,-3.31875,-41.700001
1782300379682,-0.043071,1.646262,11.606289,0.299811,0.352858,-0.281289,29.718752,-3.31875,-41.700001
1782300379683,-0.055035,1.832902,11.240187,0.299811,0.352858,-0.281289,29.718752,-3.31875,-41.700001
1782300379688,-0.055035,1.832902,11.240187,0.299811,0.352858,-0.281289,31.63125,-3.35625,-40.481251
1782300379691,-0.098106,1.957329,10.907585,0.308974,0.272834,-0.289231,31.63125,-3.35625,-40.481251
1782300379699,-0.098106,1.957329,10.907585,0.308974,0.272834,-0.289231,32.100002,-2.475,-41.831253
1782300379700,-0.124427,2.014757,10.744874,0.283929,0.162879,-0.291674,32.100002,-2.475,-41.831253
1782300379709,-0.124427,2.014757,10.744874,0.283929,0.162879,-0.291674,31.031252,-4.2375,-39.581253
1782300379710,-0.133998,2.079363,10.737694,0.222232,0.046814,-0.297172,31.031252,-4.2375,-39.581253
1782300379723,-0.112463,2.172683,10.821443,0.137932,-0.058865,-0.308167,30.825001,-2.625,-39.412502
1782300379725,-0.114855,2.256432,10.876479,0.050579,-0.135834,-0.315498,30.825001,-2.625,-39.412502
1782300379729,-0.114855,2.256432,10.876479,0.050579,-0.135834,-0.315498,31.743752,-2.475,-40.012501
1782300379734,-0.069392,2.129612,10.804694,-0.041662,-0.187758,-0.317941,31.743752,-2.475,-40.012501
1782300379740,-0.069392,2.129612,10.804694,-0.041662,-0.187758,-0.317941,30.243752,-2.75625,-40.3125
1782300379743,0.011964,1.806581,10.644374,-0.151618,-0.244568,-0.319774,30.243752,-2.75625,-40.3125
1782300379751,0.112463,1.39023,10.677874,-0.278067,-0.311152,-0.32405,31.931252,-1.14375,-42.28125
1782300379758,0.112463,1.39023,10.677874,-0.278067,-0.311152,-0.32405,31.293751,-1.29375,-41.0625
1782300379760,0.205783,1.004985,11.101404,-0.402683,-0.355135,-0.328326,31.293751,-1.29375,-41.0625
1782300379770,0.323031,0.641276,11.654146,-0.490648,-0.356356,-0.325882,29.587502,-3.16875,-42.900002
1782300379777,0.471386,0.430708,12.001105,-0.518137,-0.303211,-0.31733,29.587502,-3.16875,-42.900002
1782300379779,0.471386,0.430708,12.001105,-0.518137,-0.303211,-0.31733,31.143751,-1.14375,-41.662502
1782300379786,0.48335,0.380459,11.965212,-0.476598,-0.236627,-0.310611,31.143751,-1.14375,-41.662502
1782300379788,0.48335,0.380459,11.965212,-0.476598,-0.236627,-0.310611,30.88125,-1.875,-41.981251
1782300379794,0.478565,0.430708,11.752251,-0.372751,-0.173708,-0.29595,30.88125,-1.875,-41.981251
1782300379800,0.478565,0.430708,11.752251,-0.372751,-0.173708,-0.29595,29.831251,1.2375,-40.743752
1782300379803,0.571885,0.602991,11.290436,-0.234695,-0.081467,-0.26785,29.831251,1.2375,-40.743752
