ts,ax,ay,az,gx,gy,gz,mx,my,mz
1782299775715,0.468993,1.067199,8.969399,-0.003636,0.002832,0.0611,21.018751,-2.85,-55.181252
1782299775716,0.557528,1.141376,9.467106,-0.08427,-0.155382,0.069652,21.018751,-2.85,-55.181252
1782299775718,0.557528,1.141376,9.467106,-0.08427,-0.155382,0.069652,20.1,-2.98125,-54.562504
1782299775722,0.614955,1.174876,9.526927,-0.101985,-0.160269,0.072096,20.1,-2.98125,-54.562504
1782299775729,0.59342,1.172483,9.361822,-0.108704,-0.147441,0.070263,20.71875,-2.83125,-55.481251
1782299775739,0.543171,1.194018,9.392929,-0.111759,-0.149884,0.069042,20.831251,-2.7,-54.262501
1782299775746,0.519243,1.222732,9.491034,-0.097709,-0.14011,0.069652,20.831251,-2.7,-54.262501
1782299775749,0.519243,1.222732,9.491034,-0.097709,-0.14011,0.069652,19.762501,-1.5,-55.012501
1782299775755,0.579063,1.227518,9.467106,-0.079994,-0.103458,0.070874,19.762501,-1.5,-55.012501
1782299775759,0.579063,1.227518,9.467106,-0.079994,-0.103458,0.070874,22.06875,-2.85,-55.181252
1782299775769,0.607777,1.253839,9.378571,-0.079994,-0.068639,0.070263,20.8125,-1.51875,-54.562504
1782299775776,0.588634,1.270589,9.366607,-0.094655,-0.054589,0.072707,20.8125,-1.51875,-54.562504
1782299775779,0.588634,1.270589,9.366607,-0.094655,-0.054589,0.072707,21.31875,-3.58125,-54.431252
1782299775780,0.629312,1.244268,9.507783,-0.114202,-0.053978,0.072096,21.31875,-3.58125,-54.431252
1782299775789,0.62692,1.244268,9.66571,-0.133139,-0.04115,0.070263,20.85,-1.95,-55.312504
1782299775799,0.624527,1.201197,9.727924,-0.149632,-0.0271,0.070874,20.981251,-2.4,-54.412502
1782299775807,0.61017,1.141376,9.787744,-0.164293,-0.025878,0.073318,20.981251,-2.4,-54.412502
1782299775809,0.61017,1.141376,9.787744,-0.164293,-0.025878,0.073318,22.893751,-1.55625,-53.943752
1782299775815,0.600598,1.155733,9.897814,-0.1759,-0.027711,0.076983,22.893751,-1.55625,-53.943752
1782299775820,0.600598,1.155733,9.897814,-0.1759,-0.027711,0.076983,21.150002,-1.21875,-56.062504
1782299775823,0.564706,1.112663,9.974384,-0.179565,-0.037485,0.086757,21.150002,-1.21875,-56.062504
1782299775829,0.564706,1.112663,9.974384,-0.179565,-0.037485,0.086757,21.975,0.09375,-54.843754
1782299775832,0.514457,1.021735,10.000705,-0.185063,-0.049091,0.097141,21.975,0.09375,-54.843754
1782299775838,0.514457,1.021735,10.000705,-0.185063,-0.049091,0.097141,20.8125,-1.21875,-55.012501
1782299775840,0.459422,0.928415,10.010276,-0.200945,-0.065585,0.108748,20.8125,-1.21875,-55.012501
1782299775849,0.401994,0.803988,10.067705,-0.219882,-0.082078,0.113635,20.38125,-1.2,-55.762501
1782299775859,0.325424,0.667598,10.170596,-0.223547,-0.091241,0.114246,20.38125,-1.2,-55.762501
1782299775860,0.325424,0.667598,10.170596,-0.223547,-0.091241,0.114246,18.731251,-2.08125,-55.462502
1782299775869,0.208176,0.555135,10.278273,-0.193615,-0.087576,0.111802,20.38125,-0.76875,-56.062504
1782299775875,0.122034,0.5001,10.273488,-0.120311,-0.06925,0.108137,20.38125,-0.76875,-56.062504
1782299775880,0.122034,0.5001,10.273488,-0.120311,-0.06925,0.108137,19.856251,-0.61875,-54.393753
1782299775883,0.09332,0.567099,10.103597,-0.01402,-0.035041,0.102028,19.856251,-0.61875,-54.393753
1782299775889,0.09332,0.567099,10.103597,-0.01402,-0.035041,0.102028,21.13125,-0.46875,-56.362503
1782299775892,0.047856,0.739382,9.770995,0.105709,0.013828,0.100196,21.13125,-0.46875,-56.362503
1782299775898,0.047856,0.739382,9.770995,0.105709,0.013828,0.100196,20.15625,0.1125,-54.843754
1782299775901,0.050249,0.978664,9.333107,0.208334,0.066973,0.101417,20.15625,0.1125,-54.843754
1782299775910,0.050249,1.268196,8.926328,0.267588,0.113399,0.102639,20.362501,-1.5,-55.012501
1782299775919,0.066999,1.543371,8.62244,0.271864,0.141498,0.10997,19.987501,-1.63125,-57.431252
1782299775926,0.066999,1.543371,8.62244,0.21933,0.151272,0.119743,19.987501,-1.63125,-57.431252
1782299775927,0.078963,1.720439,8.450157,0.21933,0.151272,0.119743,19.987501,-1.63125,-57.431252
1782299775929,0.078963,1.720439,8.450157,0.21933,0.151272,0.119743,19.1625,-1.05,-55.912502
1782299775935,0.07657,1.837688,8.447763,0.121592,0.148829,0.130739,19.1625,-1.05,-55.912502
1782299775939,0.07657,1.837688,8.447763,0.121592,0.148829,0.130739,18.225,-0.45,-54.993752
1782299775943,0.105284,1.844866,8.62244,0.00064,0.136612,0.1454,18.225,-0.45,-54.993752
1782299775949,0.105284,1.844866,8.62244,0.00064,0.136612,0.1454,19.800001,-1.93125,-56.081253
1782299775952,0.11007,1.725225,8.935899,-0.128863,0.12134,0.155784,19.800001,-1.93125,-56.081253
1782299775959,0.11007,1.725225,8.935899,-0.128863,0.12134,0.155784,22.06875,-1.66875,-55.912502
1782299775960,0.11007,1.725225,8.935899,-0.254701,0.106679,0.167391,22.06875,-1.66875,-55.912502
1782299775961,0.052642,1.550549,9.330715,-0.254701,0.106679,0.167391,22.06875,-1.66875,-55.912502
1782299775970,0.047856,1.361516,9.675281,-0.373209,0.100571,0.178997,22.331251,-1.2375,-55.312504
1782299775980,0.040678,1.136591,9.998313,-0.477667,0.098127,0.191825,21.46875,0.525,-53.925003
1782299775988,0.009571,0.899701,10.354843,-0.552803,0.092629,0.204043,21.46875,0.525,-53.925003
1782299775989,0.009571,0.899701,10.354843,-0.552803,0.092629,0.204043,20.8125,-0.76875,-55.312504
1782299775997,-0.002393,0.713061,10.704196,-0.578459,0.079801,0.209541,20.8125,-0.76875,-55.312504
1782299776000,-0.002393,0.713061,10.704196,-0.578459,0.079801,0.209541,20.175001,-0.3375,-54.843754
1782299776005,-0.01675,0.602991,10.943477,-0.549138,0.07186,0.210151,20.175001,-0.3375,-54.843754
1782299776009,-0.01675,0.602991,10.943477,-0.549138,0.07186,0.210151,21.09375,-1.2375,-54.243752
1782299776013,-0.071785,0.552742,10.965013,-0.479499,0.068195,0.204043,21.09375,-1.2375,-54.243752
1782299776019,-0.071785,0.552742,10.965013,-0.479499,0.068195,0.204043,21.28125,0.1125,-56.662502
1782299776022,-0.112463,0.540778,10.871693,-0.392757,0.060253,0.19488,21.28125,0.1125,-56.662502
1782299776030,-0.100499,0.591027,10.656339,-0.302349,0.057199,0.183273,22.275002,-0.50625,-54.543751
1782299776039,-0.100499,0.591027,10.656339,-0.220493,0.051701,0.168002,21.768751,1.70625,-54.525002
1782299776040,-0.066999,0.775275,10.333308,-0.220493,0.051701,0.168002,21.768751,1.70625,-54.525002
1782299776046,-0.004786,0.961915,9.967206,-0.148411,0.030932,0.147232,21.768751,1.70625,-54.525002
1782299776048,-0.004786,0.961915,9.967206,-0.148411,0.030932,0.147232,20.081251,-0.16875,-57.112503
1782299776055,0.062213,1.15334,9.641782,-0.082437,0.008941,0.122798,20.081251,-0.16875,-57.112503
1782299776059,0.062213,1.15334,9.641782,-0.082437,0.008941,0.122798,22.012501,-0.35625,-55.443752
1782299776064,0.119641,1.342373,9.302002,-0.02807,0.000389,0.098974,22.012501,-0.35625,-55.443752
1782299776069,0.119641,1.342373,9.302002,-0.02807,0.000389,0.098974,21.712502,0.39375,-56.212502
1782299776078,0.167498,1.514657,8.959828,0.004306,-0.002666,0.076983,21.712502,0.39375,-56.212502
1782299776079,0.167498,1.514657,8.959828,0.004306,-0.002666,0.076983,20.625,0.1125,-55.143753
1782299776081,0.210568,1.672583,8.703796,0.007971,-0.002666,0.058657,20.625,0.1125,-55.143753
1782299776090,0.22014,1.804188,8.612868,-0.006079,-0.000222,0.043996,20.15625,0.7125,-55.143753
1782299776099,0.227318,1.883151,8.610475,-0.026238,0.003443,0.033611,21.09375,0.2625,-56.062504
1782299776106,0.227318,1.916651,8.651153,-0.043953,0.01566,0.029946,21.09375,0.2625,-56.062504
1782299776108,0.227318,1.916651,8.651153,-0.043953,0.01566,0.029946,21.862501,0.24375,-56.362503
1782299776115,0.256032,1.926222,8.746867,-0.06289,0.031543,0.030557,21.862501,0.24375,-56.362503
1782299776121,0.256032,1.926222,8.746867,-0.06289,0.031543,0.030557,20.6625,0.4125,-56.962502
1782299776123,0.246461,1.969293,8.892828,-0.083048,0.052923,0.034222,20.6625,0.4125,-56.962502
1782299776129,0.246461,1.969293,8.892828,-0.083048,0.052923,0.034222,20.831251,-0.76875,-56.062504
1782299776132,0.217747,1.9669,9.086648,-0.103818,0.070027,0.045218,20.831251,-0.76875,-56.062504
1782299776138,0.217747,1.9669,9.086648,-0.103818,0.070027,0.045218,20.831251,-0.76875,-56.062504
1782299776141,0.153141,1.90708,9.328322,-0.128252,0.075525,0.059268,20.831251,-0.76875,-56.062504
1782299776150,0.086142,1.830509,9.586747,-0.156352,0.068806,0.076983,22.331251,-0.1875,-56.362503
1782299776159,0.086142,1.830509,9.586747,-0.185673,0.05048,0.094698,22.331251,-0.1875,-56.362503
1782299776160,0.086142,1.720439,9.821244,-0.185673,0.05048,0.094698,22.837502,0.95625,-54.525002
1782299776167,0.040678,1.574477,10.062919,-0.207054,0.022991,0.10997,22.837502,0.95625,-54.525002
1782299776168,0.040678,1.574477,10.062919,-0.207054,0.022991,0.10997,22.837502,0.95625,-54.525002
1782299776178,0.047856,1.411765,10.266308,-0.217438,-0.012439,0.119133,22.837502,0.95625,-54.525002
1782299776180,0.047856,1.411765,10.266308,-0.217438,-0.012439,0.119133,22.40625,1.125,-55.143753
1782299776184,0.043071,1.275374,10.443378,-0.216217,-0.044815,0.122798,22.40625,1.125,-55.143753
1782299776189,0.043071,1.275374,10.443378,-0.216217,-0.044815,0.122798,21.150002,2.15625,-54.825001
1782299776192,0.040678,1.182054,10.591733,-0.20461,-0.07658,0.120965,21.150002,2.15625,-54.825001
1782299776198,0.040678,1.182054,10.591733,-0.20461,-0.07658,0.120965,21.168751,1.875,-54.825001
1782299776201,0.004786,1.11027,10.728123,-0.180786,-0.100404,0.113635,21.168751,1.875,-54.825001
1782299776209,0.004786,1.11027,10.728123,-0.180786,-0.100404,0.113635,20.887501,1.875,-55.893753
1782299776210,-0.007178,1.062413,10.752052,-0.144745,-0.122395,0.103861,20.887501,1.875,-55.893753
1782299776220,0.002393,1.064806,10.689838,-0.097098,-0.138278,0.091033,20.925001,0.69375,-55.893753
1782299776227,0.021535,1.086342,10.598911,-0.038455,-0.14011,0.077594,20.925001,0.69375,-55.893753
1782299776229,0.021535,1.086342,10.598911,-0.038455,-0.14011,0.077594,22.03125,1.14375,-57.412502
1782299776236,0.052642,1.146162,10.460127,0.032405,-0.123617,0.0611,22.03125,1.14375,-57.412502
1782299776239,0.052642,1.146162,10.460127,0.032405,-0.123617,0.0611,21.975,0.39375,-55.143753
1782299776244,0.074178,1.268196,10.213666,0.106931,-0.102847,0.039109,21.975,0.39375,-55.143753
1782299776249,0.074178,1.268196,10.213666,0.106931,-0.102847,0.039109,20.775002,0.5625,-55.743752
1782299776252,0.074178,1.268196,10.213666,0.168628,-0.09063,0.019562,20.775002,0.5625,-55.743752
1782299776253,0.09332,1.354338,9.919349,0.168628,-0.09063,0.019562,20.775002,0.5625,-55.743752
1782299776258,0.09332,1.354338,9.919349,0.168628,-0.09063,0.019562,22.03125,0.69375,-56.962502
1782299776262,0.131605,1.438086,9.668103,0.202226,-0.0833,0.00429,22.03125,0.69375,-56.962502
1782299776268,0.131605,1.438086,9.668103,0.202226,-0.0833,0.00429,21.675001,0.39375,-55.143753
1782299776270,0.131605,1.438086,9.668103,0.207113,-0.071693,-0.006706,21.675001,0.39375,-55.143753
1782299776279,0.189033,1.529014,9.452749,0.207113,-0.071693,-0.006706,21.675001,0.39375,-55.143753
1782299776280,0.224925,1.596013,9.349858,0.201615,-0.056422,-0.017701,20.887501,-0.46875,-57.881252
1782299776287,0.244068,1.67019,9.273287,0.200393,-0.039928,-0.025032,20.887501,-0.46875,-57.881252
1782299776292,0.244068,1.67019,9.273287,0.200393,-0.039928,-0.025032,21.1875,1.425,-55.443752
1782299776295,0.263211,1.727618,9.141682,0.207113,-0.014272,-0.03114,21.1875,1.425,-55.443752
1782299776298,0.263211,1.727618,9.141682,0.207113,-0.014272,-0.03114,20.306252,0.99375,-55.743752
1782299776304,0.263211,1.727618,9.141682,0.21261,0.015049,-0.040303,20.306252,0.99375,-55.743752
1782299776305,0.287139,1.804188,9.055541,0.21261,0.015049,-0.040303,20.306252,0.99375,-55.743752
1782299776309,0.287139,1.804188,9.055541,0.21261,0.015049,-0.040303,19.725,0.5625,-56.043751
1782299776313,0.27996,1.820938,9.036397,0.214443,0.034597,-0.049466,19.725,0.5625,-56.043751
1782299776318,0.27996,1.820938,9.036397,0.214443,0.034597,-0.049466,21.918751,1.125,-54.375004
1782299776321,0.301496,1.840081,9.03879,0.211389,0.045593,-0.055575,21.918751,1.125,-54.375004
1782299776329,0.301496,1.840081,9.03879,0.211389,0.045593,-0.055575,20.793751,2.04375,-57.562504
1782299776330,0.380459,1.842473,9.050755,0.195506,0.045593,-0.065349,20.793751,2.04375,-57.562504
1782299776340,0.289532,1.830509,9.136897,0.166796,0.032765,-0.075733,20.025002,-0.46875,-54.993752
1782299776348,0.191426,1.806581,9.323536,0.138085,0.012606,-0.080009,20.793751,0.2625,-55.743752
1782299776355,0.153141,1.706083,9.565212,0.123424,-0.004498,-0.084285,20.793751,0.2625,-55.743752
1782299776359,0.153141,1.706083,9.565212,0.123424,-0.004498,-0.084285,20.38125,-0.76875,-56.062504
1782299776364,0.102891,1.648655,9.806887,0.126479,0.004665,-0.084285,20.38125,-0.76875,-56.062504
1782299776369,0.102891,1.648655,9.806887,0.126479,0.004665,-0.084285,22.5375,-1.06875,-57.431252
1782299776373,0.095713,1.612762,9.926528,0.146637,0.041928,-0.081842,22.5375,-1.06875,-57.431252
1782299776378,0.095713,1.612762,9.926528,0.146637,0.041928,-0.081842,22.40625,0.375,-54.843754
1782299776381,0.102891,1.572084,9.92892,0.175959,0.081023,-0.077566,22.40625,0.375,-54.843754
1782299776388,0.102891,1.572084,9.92892,0.175959,0.081023,-0.077566,21.262501,0.1125,-56.212502
1782299776389,0.102891,1.572084,9.92892,0.202837,0.103014,-0.07329,21.262501,0.1125,-56.212502
1782299776390,0.071785,1.533799,9.971991,0.202837,0.103014,-0.07329,21.262501,0.1125,-56.212502
1782299776399,0.062213,1.540978,10.053347,0.224217,0.11462,-0.068403,20.681252,-1.65,-55.462502
1782299776407,0.01675,1.521835,10.180167,0.242543,0.118896,-0.06596,20.681252,-1.65,-55.462502
1782299776408,0.01675,1.521835,10.180167,0.242543,0.118896,-0.06596,22.03125,-1.6875,-54.862503
1782299776416,-0.066999,1.495514,10.299808,0.257814,0.113399,-0.064127,22.03125,-1.6875,-54.862503
1782299776418,-0.066999,1.495514,10.299808,0.257814,0.113399,-0.064127,22.40625,0.075,-54.075001
1782299776424,-0.071785,1.464407,10.414664,0.266977,0.106679,-0.058018,22.40625,0.075,-54.075001
1782299776429,-0.071785,1.464407,10.414664,0.266977,0.106679,-0.058018,21.975,-2.98125,-56.381252
1782299776432,-0.071785,1.464407,10.414664,0.276751,0.101181,-0.05191,21.975,-2.98125,-56.381252
1782299776433,-0.078963,1.440479,10.579769,0.276751,0.101181,-0.05191,21.975,-2.98125,-56.381252
1782299776438,-0.078963,1.440479,10.579769,0.276751,0.101181,-0.05191,22.143751,-2.83125,-57.450001
1782299776441,-0.136391,1.428515,10.742481,0.299964,0.103014,-0.044579,22.143751,-2.83125,-57.450001
1782299776449,-0.136391,1.428515,10.742481,0.299964,0.103014,-0.044579,22.331251,-0.1875,-56.362503
1782299776450,-0.148355,1.452443,10.8693,0.335394,0.109123,-0.03786,22.331251,-0.1875,-56.362503
1782299776460,-0.165105,1.493121,10.96262,0.384263,0.109123,-0.035416,20.868752,-1.95,-56.381252
1782299776467,-0.107677,1.519442,11.034404,0.43863,0.091408,-0.037249,20.868752,-1.95,-56.381252
1782299776469,-0.107677,1.519442,11.034404,0.43863,0.091408,-0.037249,23.34375,-2.85,-57.000004
1782299776476,-0.052642,1.493121,11.103797,0.482002,0.068195,-0.042136,23.34375,-2.85,-57.000004
1782299776479,-0.052642,1.493121,11.103797,0.482002,0.068195,-0.042136,22.5375,-1.66875,-56.681252
1782299776487,0.0335,1.521835,11.194724,0.511934,0.052312,-0.047634,22.5375,-1.66875,-56.681252
1782299776490,0.0335,1.521835,11.194724,0.511934,0.052312,-0.047634,22.706251,-2.7,-56.381252
1782299776493,0.136391,1.574477,11.228223,0.529649,0.041317,-0.055575,22.706251,-2.7,-56.381252
1782299776499,0.136391,1.574477,11.228223,0.529649,0.041317,-0.055575,21.900002,-2.26875,-55.012501
1782299776501,0.179462,1.646262,11.204295,0.540645,0.046204,-0.067181,21.900002,-2.26875,-55.012501
1782299776509,0.179462,1.646262,11.204295,0.540645,0.046204,-0.067181,22.987501,-3.75,-54.581253
1782299776510,0.29671,1.720439,11.103797,0.540645,0.066362,-0.078788,22.987501,-3.75,-54.581253
1782299776520,0.595813,1.818545,10.967406,0.524152,0.09996,-0.100168,22.78125,-3.73125,-57.618752
1782299776527,0.497707,1.67019,10.831015,0.48078,0.13539,-0.125824,22.78125,-3.73125,-57.618752
1782299776528,0.497707,1.67019,10.831015,0.48078,0.13539,-0.125824,21.918751,-1.96875,-56.081253
1782299776535,0.497707,1.67019,10.831015,0.4032,0.160435,-0.138042,21.918751,-1.96875,-56.081253
1782299776536,0.524028,1.473979,10.764016,0.4032,0.160435,-0.138042,21.918751,-1.96875,-56.081253
1782299776538,0.524028,1.473979,10.764016,0.4032,0.160435,-0.138042,24.075001,-4.95,-54.431252
1782299776545,0.514457,1.308874,10.811872,0.284693,0.179372,-0.162476,24.075001,-4.95,-54.431252
1782299776549,0.514457,1.308874,10.811872,0.284693,0.179372,-0.162476,23.6625,-5.38125,-54.900002
1782299776553,0.299103,1.028914,10.953049,0.13442,0.190979,-0.19363,23.6625,-5.38125,-54.900002
1782299776558,0.299103,1.028914,10.953049,0.13442,0.190979,-0.19363,24.262501,-4.05,-56.100002
1782299776561,0.299103,1.028914,10.953049,-0.027459,0.187313,-0.209513,24.262501,-4.05,-56.100002
1782299776562,0.066999,0.739382,11.18276,-0.027459,0.187313,-0.209513,24.262501,-4.05,-56.100002
1782299776568,0.066999,0.739382,11.18276,-0.027459,0.187313,-0.209513,21.9375,-3.75,-54.581253
1782299776570,-0.050249,0.545564,11.398114,-0.167958,0.186092,-0.209513,21.9375,-3.75,-54.581253
1782299776580,-0.160319,0.361316,11.623039,-0.242484,0.191589,-0.195463,24.225,-3.31875,-55.781254
1782299776594,0.055035,0.289532,11.919749,-0.231488,0.233128,-0.175915,25.087502,-3.6375,-54.412502
1782299776596,0.124427,0.303888,11.931714,-0.14108,0.304599,-0.162476,25.087502,-3.6375,-54.412502
1782299776598,0.124427,0.303888,11.931714,-0.14108,0.304599,-0.162476,24.356251,-3.16875,-55.181252
1782299776605,0.057428,0.356531,11.53929,-0.00669,0.341251,-0.142928,24.356251,-3.16875,-55.181252
1782299776610,0.057428,0.356531,11.53929,-0.00669,0.341251,-0.142928,24.075001,-5.4,-54.131252
1782299776613,-0.004786,0.445065,11.017655,0.106931,0.313762,-0.123992,24.075001,-5.4,-54.131252
1782299776618,-0.004786,0.445065,11.017655,0.106931,0.313762,-0.123992,24.075001,-5.4,-54.131252
1782299776621,-0.133998,0.504886,10.577376,0.167406,0.260006,-0.110553,24.075001,-5.4,-54.131252
1782299776629,-0.133998,0.504886,10.577376,0.167406,0.260006,-0.110553,23.268751,-2.86875,-54.862503
1782299776630,-0.27996,0.567099,10.168203,0.173515,0.230074,-0.086729,23.268751,-2.86875,-54.862503
1782299776639,-0.27996,0.567099,10.168203,0.135641,0.243513,-0.05252,23.268751,-2.86875,-54.862503
1782299776640,-0.342174,0.660419,9.651353,0.135641,0.243513,-0.05252,23.418751,-3.31875,-54.262501
1782299776647,-0.342174,0.660419,9.651353,0.074555,0.261228,-0.016479,23.418751,-3.31875,-54.262501
1782299776648,-0.39003,0.715454,9.189539,0.074555,0.261228,-0.016479,25.012501,-3.76875,-56.400002
1782299776656,-0.421137,0.727418,8.928721,0.015301,0.252676,0.022005,25.012501,-3.76875,-56.400002
1782299776658,-0.421137,0.727418,8.928721,0.015301,0.252676,0.022005,25.25625,-2.7375,-55.781254
1782299776664,-0.416351,0.746561,8.861722,-0.012799,0.213581,0.054992,25.25625,-2.7375,-55.781254
1782299776670,-0.416351,0.746561,8.861722,-0.012799,0.213581,0.054992,24.675001,-3.91875,-55.181252
1782299776673,-0.368495,0.756132,8.907185,0.001862,0.15677,0.077594,24.675001,-3.91875,-55.181252
1782299776678,-0.368495,0.756132,8.907185,0.001862,0.15677,0.077594,24.356251,-3.61875,-54.881252
1782299776681,-0.368495,0.756132,8.907185,0.047677,0.09324,0.088589,24.356251,-3.61875,-54.881252
1782299776682,-0.294317,0.820738,8.921543,0.047677,0.09324,0.088589,24.356251,-3.61875,-54.881252
1782299776694,-0.229711,0.916451,8.821044,0.10632,0.033375,0.0892,25.668751,-3.05625,-53.962502
1782299776701,-0.141177,1.014557,8.620047,0.150302,-0.028933,0.083702,25.387501,-2.45625,-55.481251
1782299776707,-0.057428,1.11027,8.342479,0.159465,-0.099793,0.072707,25.387501,-2.45625,-55.481251
1782299776708,-0.057428,1.11027,8.342479,0.159465,-0.099793,0.072707,25.237501,-3.0375,-54.562504
1782299776716,-0.019143,1.150948,8.052948,0.124035,-0.16088,0.063544,25.237501,-3.0375,-54.562504
1782299776718,-0.019143,1.150948,8.052948,0.124035,-0.16088,0.063544,25.387501,-2.45625,-55.162502
1782299776724,0.07657,1.179662,7.856736,0.045233,-0.204862,0.060489,25.387501,-2.45625,-55.162502
1782299776730,0.07657,1.179662,7.856736,0.045233,-0.204862,0.060489,25.500002,-4.65,-56.700001
1782299776733,0.181855,1.174876,7.856736,-0.068998,-0.219523,0.056824,25.500002,-4.65,-56.700001
1782299776739,0.181855,1.174876,7.856736,-0.068998,-0.219523,0.056824,23.700001,-3.76875,-53.212502
1782299776742,0.153141,1.050449,8.045769,-0.193004,-0.209138,0.058657,23.700001,-3.76875,-53.212502
1782299776749,0.153141,1.050449,8.045769,-0.193004,-0.209138,0.058657,25.762501,-4.81875,-55.350002
1782299776750,0.153141,1.050449,8.045769,-0.30357,-0.178595,0.066598,25.762501,-4.81875,-55.350002
1782299776751,0.248854,1.033699,8.304194,-0.30357,-0.178595,0.066598,25.762501,-4.81875,-55.350002
1782299776760,0.260818,0.698704,8.816258,-0.383594,-0.11873,0.073318,24.618752,-3.1875,-54.412502
1782299776768,0.212961,0.591027,8.931114,-0.430019,-0.039317,0.080648,25.837502,-3.20625,-54.412502
1782299776776,0.165105,0.370888,9.208681,-0.442847,-0.000222,0.075761,25.837502,-3.20625,-54.412502
1782299776779,0.165105,0.370888,9.208681,-0.442847,-0.000222,0.075761,26.156252,-2.90625,-55.181252
1782299776784,0.165105,0.370888,9.208681,-0.431241,0.013217,0.069652,26.156252,-2.90625,-55.181252
1782299776785,0.102891,0.244068,9.457534,-0.431241,0.013217,0.069652,26.156252,-2.90625,-55.181252
1782299776794,0.095713,0.210568,9.756637,-0.396422,0.009552,0.052548,24.337502,-3.1875,-54.881252
1782299776799,0.095713,0.210568,9.756637,-0.396422,0.009552,0.052548,24.581251,-1.70625,-54.393753
1782299776802,0.088534,0.224925,9.912171,-0.334724,0.005887,0.036055,24.581251,-1.70625,-54.393753
1782299776808,0.088534,0.224925,9.912171,-0.334724,0.005887,0.036055,26.643751,-3.9375,-55.481251
1782299776810,0.081356,0.339781,9.900207,-0.26081,0.011384,0.024448,26.643751,-3.9375,-55.481251
1782299776820,0.028714,0.495314,9.766209,-0.177121,0.018715,0.018951,24.0,-1.70625,-54.862503
1782299776828,0.0,0.643669,9.53889,-0.090378,0.031543,0.020783,24.0,-1.70625,-54.862503
1782299776829,0.0,0.643669,9.53889,-0.090378,0.031543,0.020783,24.637501,-2.8875,-55.181252
1782299776837,-0.014357,0.806381,9.220645,-0.015242,0.063308,0.028725,24.637501,-2.8875,-55.181252
1782299776838,-0.014357,0.806381,9.220645,-0.015242,0.063308,0.028725,26.268751,-3.05625,-53.962502
1782299776845,-0.055035,0.964308,8.895221,0.029351,0.095684,0.040331,26.268751,-3.05625,-53.962502
1782299776849,-0.055035,0.964308,8.895221,0.029351,0.095684,0.040331,25.050001,-1.125,-55.162502
1782299776853,-0.117248,1.100698,8.629618,0.037903,0.115842,0.056824,25.050001,-1.125,-55.162502
1782299776859,-0.117248,1.100698,8.629618,0.037903,0.115842,0.056824,23.212502,-1.70625,-54.093754
1782299776862,-0.165105,1.215554,8.533906,0.011025,0.115231,0.07515,23.212502,-1.70625,-54.093754
1782299776869,-0.165105,1.215554,8.533906,0.011025,0.115231,0.07515,25.368752,-2.45625,-54.412502
1782299776871,-0.189033,1.318445,8.58894,-0.032346,0.096905,0.092865,25.368752,-2.45625,-54.412502
1782299776880,-0.205783,1.383052,8.751652,-0.068387,0.076747,0.106915,26.925001,-3.95625,-54.431252
1782299776889,-0.20339,1.418944,8.900007,-0.088546,0.062086,0.119743,26.2875,-2.75625,-54.562504
1782299776903,-0.191426,1.421337,8.926328,-0.094044,0.048647,0.129517,26.531252,-1.74375,-54.093754
1782299776905,-0.160319,1.416551,8.900007,-0.086102,0.026045,0.137458,26.531252,-1.74375,-54.093754
1782299776909,-0.160319,1.416551,8.900007,-0.086102,0.026045,0.137458,23.962502,-1.70625,-54.093754
1782299776913,-0.124427,1.409373,8.85215,-0.066555,0.005887,0.146621,23.962502,-1.70625,-54.093754
1782299776918,-0.124427,1.409373,8.85215,-0.066555,0.005887,0.146621,26.868752,-2.475,-54.412502
1782299776922,-0.062213,1.414158,8.816258,-0.040288,-0.005109,0.155784,26.868752,-2.475,-54.412502
1782299776929,-0.062213,1.414158,8.816258,-0.040288,-0.005109,0.155784,27.806252,-3.075,-54.562504
1782299776930,-0.062213,1.414158,8.816258,-0.016464,-0.013661,0.164947,27.806252,-3.075,-54.562504
1782299776931,-0.052642,1.416551,8.770794,-0.016464,-0.013661,0.164947,27.806252,-3.075,-54.562504
1782299776940,-0.009571,1.430908,8.739687,-0.005468,-0.034431,0.177165,25.893751,-1.29375,-53.493752
1782299776949,0.028714,1.423729,8.804294,-0.007912,-0.053978,0.19488,26.718752,-2.325,-54.562504
1782299776956,0.028714,1.423729,8.804294,-0.01402,-0.060698,0.21626,26.718752,-2.325,-54.562504
1782299776957,0.043071,1.452443,8.91915,-0.01402,-0.060698,0.21626,26.718752,-2.325,-54.562504
1782299776959,0.043071,1.452443,8.91915,-0.01402,-0.060698,0.21626,26.19375,-4.66875,-54.881252
1782299776965,0.074178,1.481157,9.041183,-0.012799,-0.053367,0.23764,26.19375,-4.66875,-54.881252
1782299776970,0.074178,1.481157,9.041183,-0.012799,-0.053367,0.23764,24.525002,-3.01875,-56.081253
1782299776973,0.11007,1.462015,9.10579,-0.007301,-0.040539,0.255966,24.525002,-3.01875,-56.081253
1782299776979,0.11007,1.462015,9.10579,-0.007301,-0.040539,0.255966,25.218752,-2.30625,-55.012501
1782299776982,0.131605,1.459622,9.172789,-0.000581,-0.032598,0.27307,25.218752,-2.30625,-55.012501
1782299776989,0.131605,1.459622,9.172789,-0.000581,-0.032598,0.27307,26.156252,-3.20625,-54.881252
1782299776991,0.150748,1.471586,9.225431,0.011636,-0.043594,0.288953,26.156252,-3.20625,-54.881252
1782299777003,0.174676,1.45005,9.258931,0.034849,-0.050924,0.300559,25.25625,-2.7375,-55.331253
1782299777009,0.174676,1.45005,9.258931,0.062338,-0.04115,0.30789,26.737501,-2.775,-54.562504
1782299777010,0.167498,1.421337,9.294822,0.062338,-0.04115,0.30789,26.737501,-2.775,-54.562504
1782299777017,0.124427,1.433301,9.27568,0.083107,-0.030765,0.313388,26.737501,-2.775,-54.562504
1782299777018,0.124427,1.433301,9.27568,0.083107,-0.030765,0.313388,24.337502,-2.8875,-54.862503
1782299777025,0.112463,1.440479,9.323536,0.097157,-0.035041,0.320107,24.337502,-2.8875,-54.862503
1782299777030,0.112463,1.440479,9.323536,0.097157,-0.035041,0.320107,25.987501,-3.05625,-54.262501
1782299777033,0.112463,1.440479,9.323536,0.106931,-0.061309,0.326216,25.987501,-3.05625,-54.262501
1782299777034,0.124427,1.445265,9.51257,0.106931,-0.061309,0.326216,25.987501,-3.05625,-54.262501
1782299777039,0.124427,1.445265,9.51257,0.106931,-0.061309,0.326216,25.781252,-4.81875,-55.800003
1782299777042,0.124427,1.445265,9.749459,0.122813,-0.081467,0.331713,25.781252,-4.81875,-55.800003
1782299777048,0.124427,1.445265,9.749459,0.122813,-0.081467,0.331713,26.156252,-3.20625,-54.881252
1782299777051,0.150748,1.469193,9.845171,0.149081,-0.079024,0.337822,26.156252,-3.20625,-54.881252
1782299777059,0.150748,1.469193,9.845171,0.178402,-0.058865,0.344542,26.156252,-3.20625,-54.881252
1782299777060,0.174676,1.478764,9.857136,0.178402,-0.058865,0.344542,27.825001,-3.375,-55.031254
1782299777069,0.174676,1.478764,9.857136,0.202226,-0.037485,0.352483,27.825001,-3.375,-55.031254
1782299777070,0.210568,1.454836,9.88585,0.202226,-0.037485,0.352483,25.837502,-2.45625,-55.162502
1782299777076,0.193819,1.402194,10.003098,0.215665,-0.0271,0.359202,25.837502,-2.45625,-55.162502
1782299777079,0.193819,1.402194,10.003098,0.215665,-0.0271,0.359202,27.731251,-4.9875,-55.200001
1782299777085,0.184247,1.347159,10.180167,0.222384,-0.028322,0.367144,27.731251,-4.9875,-55.200001
1782299777089,0.184247,1.347159,10.180167,0.222384,-0.028322,0.367144,27.731251,-4.9875,-55.200001
1782299777093,0.200997,1.237089,10.373986,0.226049,-0.027711,0.372641,27.731251,-4.9875,-55.200001
1782299777102,0.246461,1.107877,10.574983,0.231547,-0.020381,0.376307,27.637501,-5.26875,-56.868752
1782299777109,0.246461,1.107877,10.574983,0.231547,-0.020381,0.376307,26.925001,-4.2375,-54.431252
1782299777110,0.246461,1.107877,10.574983,0.241321,-0.009996,0.377528,26.925001,-4.2375,-54.431252
1782299777111,0.229711,0.988236,10.783159,0.241321,-0.009996,0.377528,26.925001,-4.2375,-54.431252
1782299777120,0.208176,0.916451,10.986548,0.259036,-0.00572,0.377528,27.112501,-4.5375,-55.331253
1782299777129,0.208176,0.916451,10.986548,0.285303,-0.021602,0.376917,27.112501,-4.5375,-55.331253
1782299777130,0.18664,0.887737,11.05594,0.285303,-0.021602,0.376917,27.900002,-5.86875,-55.050003
1782299777137,0.191426,0.92363,11.029619,0.318901,-0.03382,0.377528,27.900002,-5.86875,-55.050003
1782299777138,0.191426,0.92363,11.029619,0.318901,-0.03382,0.377528,28.518751,-5.4375,-55.950001
1782299777146,0.193819,1.024128,10.921942,0.359829,-0.018548,0.379361,28.518751,-5.4375,-55.950001
1782299777149,0.193819,1.024128,10.921942,0.359829,-0.018548,0.379361,26.700001,-5.7,-55.500004
1782299777154,0.167498,1.129412,10.716159,0.410531,0.030321,0.381193,26.700001,-5.7,-55.500004
1782299777159,0.167498,1.129412,10.716159,0.410531,0.030321,0.381193,27.731251,-4.9875,-55.200001
1782299777162,0.114855,1.22034,10.47927,0.456956,0.079801,0.388524,27.731251,-4.9875,-55.200001
1782299777168,0.114855,1.22034,10.47927,0.456956,0.079801,0.388524,27.618752,-7.35,-54.300003
1782299777171,0.0335,1.29691,10.345272,0.479558,0.129281,0.399519,27.618752,-7.35,-54.300003
1782299777179,0.0335,1.29691,10.345272,0.463676,0.189146,0.414791,27.618752,-7.35,-54.300003
1782299777180,-0.095713,1.433301,10.302201,0.463676,0.189146,0.414791,27.187502,-6.3,-55.818752
1782299777189,-0.095713,1.433301,10.302201,0.416639,0.24168,0.430674,27.187502,-6.3,-55.818752
1782299777190,-0.284746,1.598405,10.309379,0.416639,0.24168,0.430674,27.150002,-6.6,-54.600002
1782299777197,-0.445065,1.744368,10.335701,0.351888,0.266726,0.445945,27.150002,-6.6,-54.600002
1782299777198,-0.445065,1.744368,10.335701,0.351888,0.266726,0.445945,27.356251,-7.2,-55.218754
1782299777212,-0.502493,1.792224,10.335701,0.274308,0.260006,0.458773,27.750002,-6.16875,-54.900002
1782299777213,-0.502493,1.792224,10.335701,0.180235,0.23435,0.467325,27.750002,-6.16875,-54.900002
1782299777214,-0.512064,1.698904,10.350057,0.180235,0.23435,0.467325,27.750002,-6.16875,-54.900002
1782299777219,-0.512064,1.698904,10.350057,0.180235,0.23435,0.467325,28.1625,-7.93125,-56.287502
1782299777222,-0.512064,1.698904,10.350057,0.059894,0.191589,0.467936,28.1625,-7.93125,-56.287502
1782299777223,-0.514457,1.51705,10.440984,0.059894,0.191589,0.467936,28.1625,-7.93125,-56.287502
1782299777228,-0.514457,1.51705,10.440984,0.059894,0.191589,0.467936,28.06875,-7.5,-54.150002
1782299777231,-0.540778,1.272982,10.69941,-0.092822,0.105457,0.458162,28.06875,-7.5,-54.150002
1782299777241,-0.528814,1.01695,11.036798,-0.272416,-0.042372,0.441058,29.625002,-7.51875,-55.218754
1782299777249,-0.421137,0.744168,11.335901,-0.463006,-0.234794,0.422121,28.481251,-6.7875,-53.381252
1782299777256,-0.318245,0.442672,11.663717,-0.629161,-0.431493,0.403796,28.481251,-6.7875,-53.381252
1782299777258,-0.318245,0.442672,11.663717,-0.629161,-0.431493,0.403796,26.531252,-9.09375,-56.456253
1782299777265,-0.210568,0.16989,12.082461,-0.729954,-0.564661,0.383637,26.531252,-9.09375,-56.456253
1782299777270,-0.210568,0.16989,12.082461,-0.729954,-0.564661,0.383637,26.737501,-7.48125,-54.918751
1782299777274,-0.119641,-0.062213,12.211673,-0.733008,-0.593372,0.369587,26.737501,-7.48125,-54.918751
1782299777279,-0.119641,-0.062213,12.211673,-0.733008,-0.593372,0.369587,28.81875,-7.21875,-54.150002
1782299777282,0.019143,-0.18664,11.929321,-0.652985,-0.530453,0.367144,28.81875,-7.21875,-54.150002
1782299777288,0.019143,-0.18664,11.929321,-0.652985,-0.530453,0.367144,27.187502,-7.05,-55.368752
1782299777291,0.095713,-0.155533,11.493826,-0.525925,-0.438212,0.368976,27.187502,-7.05,-55.368752
1782299777299,0.095713,-0.155533,11.493826,-0.371987,-0.345361,0.376917,27.187502,-7.05,-55.368752
1782299777303,0.145962,-0.083749,11.065511,-0.371987,-0.345361,0.376917,27.168751,-5.56875,-56.100002
1782299777312,0.174676,0.0335,10.735302,-0.203388,-0.232962,0.391578,27.393751,-6.15,-57.487503
1782299777316,0.174676,0.0335,10.735302,-0.037844,-0.094295,0.405628,27.393751,-6.15,-57.487503
1782299777317,0.131605,0.244068,10.433806,-0.037844,-0.094295,0.405628,27.393751,-6.15,-57.487503
1782299777318,0.131605,0.244068,10.433806,-0.037844,-0.094295,0.405628,27.018751,-6.75,-54.900002
1782299777325,0.01675,0.528814,10.046169,0.098379,0.049869,0.419678,27.018751,-6.75,-54.900002
1782299777329,0.01675,0.528814,10.046169,0.098379,0.049869,0.419678,25.143751,-6.99375,-57.187504
1782299777334,-0.07657,0.787239,9.663317,0.182067,0.167766,0.431284,25.143751,-6.99375,-57.187504
1782299777339,-0.07657,0.787239,9.663317,0.182067,0.167766,0.431284,26.400002,-5.85,-55.350002
1782299777342,-0.07657,0.787239,9.663317,0.19795,0.238626,0.441669,26.400002,-5.85,-55.350002
1782299777343,-0.189033,0.959522,9.302002,0.19795,0.238626,0.441669,26.400002,-5.85,-55.350002
1782299777349,-0.189033,0.959522,9.302002,0.19795,0.238626,0.441669,26.212502,-8.793751,-56.137501
1782299777351,-0.29671,1.043271,9.036397,0.152135,0.250843,0.451443,26.212502,-8.793751,-56.137501
1782299777359,-0.29671,1.043271,9.036397,0.070279,0.219078,0.456941,25.312502,-7.89375,-56.737503
1782299777360,-0.418744,1.040878,8.998112,0.070279,0.219078,0.456941,25.312502,-7.89375,-56.737503
1782299777370,-0.519243,0.959522,9.160824,-0.007301,0.159214,0.456941,27.956251,-6.6,-56.118752
1782299777376,-0.519243,0.959522,9.160824,-0.069609,0.089575,0.452665,27.956251,-6.6,-56.118752
1782299777377,-0.55992,0.849452,9.364214,-0.069609,0.089575,0.452665,27.956251,-6.6,-56.118752
1782299777378,-0.55992,0.849452,9.364214,-0.069609,0.089575,0.452665,25.425001,-7.3125,-56.118752
1782299777385,-0.545564,0.758525,9.47907,-0.110537,0.028489,0.444723,25.425001,-7.3125,-56.118752
1782299777388,-0.545564,0.758525,9.47907,-0.110537,0.028489,0.444723,26.793751,-7.4625,-56.287502
1782299777394,-0.528814,0.693919,9.452749,-0.12703,-0.021602,0.43495,26.793751,-7.4625,-56.287502
1782299777400,-0.528814,0.693919,9.452749,-0.12703,-0.021602,0.43495,28.500002,-8.3625,-56.887501
1782299777402,-0.528814,0.693919,9.452749,-0.12703,-0.059476,0.426398,28.500002,-8.3625,-56.887501
1782299777410,-0.492921,0.653241,9.321144,-0.12703,-0.059476,0.426398,26.362501,-8.64375,-56.287502
1782299777411,-0.48335,0.622134,9.189539,-0.117257,-0.092463,0.417845,26.362501,-8.64375,-56.287502
1782299777418,-0.48335,0.622134,9.189539,-0.117257,-0.092463,0.417845,25.556252,-6.7125,-56.268753
1782299777420,-0.473779,0.564706,9.022041,-0.103818,-0.113843,0.411737,25.556252,-6.7125,-56.268753
1782299777430,-0.440279,0.531207,8.931114,-0.092211,-0.120562,0.410515,26.512501,-7.6125,-57.187504
1782299777437,-0.425922,0.51685,8.835401,-0.088546,-0.11873,0.405628,26.512501,-7.6125,-57.187504
1782299777438,-0.425922,0.51685,8.835401,-0.088546,-0.11873,0.405628,26.793751,-8.212501,-55.518753
1782299777445,-0.425922,0.51685,8.835401,-0.0916,-0.120562,0.399519,26.793751,-8.212501,-55.518753
1782299777446,-0.358923,0.416351,8.813865,-0.0916,-0.120562,0.399519,26.793751,-8.212501,-55.518753
1782299777448,-0.358923,0.416351,8.813865,-0.0916,-0.120562,0.399519,25.387501,-5.83125,-56.868752
1782299777454,-0.301496,0.346959,8.77558,-0.103207,-0.123617,0.387913,25.387501,-5.83125,-56.868752
1782299777459,-0.301496,0.346959,8.77558,-0.103207,-0.123617,0.387913,24.825001,-8.625,-55.237503
1782299777462,-0.301496,0.346959,8.77558,-0.121533,-0.133391,0.372641,24.825001,-8.625,-55.237503
1782299777463,-0.248854,0.339781,8.71576,-0.121533,-0.133391,0.372641,24.825001,-8.625,-55.237503
1782299777468,-0.248854,0.339781,8.71576,-0.121533,-0.133391,0.372641,25.950001,-8.775001,-56.906254
1782299777471,-0.208176,0.380459,8.77558,-0.139859,-0.147441,0.355537,25.950001,-8.775001,-56.906254
1782299777479,-0.208176,0.380459,8.77558,-0.139859,-0.147441,0.355537,25.63125,-8.19375,-57.037502
1782299777480,-0.212961,0.42353,8.739687,-0.14108,-0.153549,0.334157,25.63125,-8.19375,-57.037502
1782299777490,-0.174676,0.519243,8.632011,-0.106261,-0.153549,0.312777,25.575001,-6.7125,-57.037502
1782299777497,-0.038285,0.59342,8.488441,-0.040898,-0.12606,0.285288,25.575001,-6.7125,-57.037502
1782299777498,-0.038285,0.59342,8.488441,-0.040898,-0.12606,0.285288,25.44375,-7.29375,-56.887501
1782299777505,-0.038285,0.59342,8.488441,0.044623,-0.075969,0.254745,25.44375,-7.29375,-56.887501
1782299777506,0.043071,0.701097,8.25873,0.044623,-0.075969,0.254745,25.44375,-7.29375,-56.887501
1782299777509,0.043071,0.701097,8.25873,0.044623,-0.075969,0.254745,24.525002,-7.89375,-55.987503
1782299777519,0.136391,0.856631,8.005091,0.127089,-0.011218,0.226645,24.525002,-7.89375,-55.987503
1782299777520,0.136391,0.856631,8.005091,0.127089,-0.011218,0.226645,24.750002,-10.087501,-56.456253
1782299777522,0.136391,0.856631,8.005091,0.174737,0.042538,0.200988,24.750002,-10.087501,-56.456253
1782299777523,0.222533,1.01695,7.725131,0.174737,0.042538,0.200988,24.750002,-10.087501,-56.456253
1782299777529,0.222533,1.01695,7.725131,0.174737,0.042538,0.200988,24.243752,-8.625,-55.987503
1782299777531,0.258425,1.141376,7.586347,0.165574,0.066362,0.181441,24.243752,-8.625,-55.987503
1782299777538,0.258425,1.141376,7.586347,0.165574,0.066362,0.181441,27.262501,-8.0625,-56.437504
1782299777539,0.258425,1.141376,7.586347,0.106931,0.078579,0.164337,27.262501,-8.0625,-56.437504
1782299777540,0.265603,1.258625,7.627025,0.106931,0.078579,0.164337,27.262501,-8.0625,-56.437504
1782299777549,0.265603,1.258625,7.627025,0.026297,0.080412,0.149065,27.262501,-8.0625,-56.437504
1782299777550,0.234497,1.339981,7.828023,0.026297,0.080412,0.149065,24.018751,-8.7375,-58.425003
1782299777557,0.160319,1.361516,8.060126,-0.047007,0.081634,0.132572,24.018751,-8.7375,-58.425003
1782299777558,0.160319,1.361516,8.060126,-0.047007,0.081634,0.132572,25.893751,-8.043751,-56.137501
1782299777565,0.160319,1.361516,8.060126,-0.100763,0.066362,0.114246,25.893751,-8.043751,-56.137501
1782299777566,0.069392,1.330409,8.332908,-0.100763,0.066362,0.114246,25.893751,-8.043751,-56.137501
1782299777568,0.069392,1.330409,8.332908,-0.100763,0.066362,0.114246,25.893751,-8.043751,-56.137501
1782299777574,0.045464,1.29691,8.603297,-0.13375,0.040095,0.097752,25.893751,-8.043751,-56.137501
1782299777579,0.045464,1.29691,8.603297,-0.13375,0.040095,0.097752,24.731251,-9.50625,-56.156254
1782299777582,0.045464,1.29691,8.603297,-0.150243,0.002832,0.080037,24.731251,-9.50625,-56.156254
1782299777583,0.059821,1.232304,8.849758,-0.150243,0.002832,0.080037,24.731251,-9.50625,-56.156254
1782299777588,0.059821,1.232304,8.849758,-0.150243,0.002832,0.080037,24.731251,-9.50625,-56.156254
1782299777591,0.052642,1.15334,9.007684,-0.152687,-0.023435,0.064766,24.731251,-9.50625,-56.156254
1782299777598,0.052642,1.15334,9.007684,-0.152687,-0.023435,0.064766,24.731251,-7.275,-58.406254
1782299777600,0.021535,1.074377,9.172789,-0.139248,-0.033209,0.054381,24.731251,-7.275,-58.406254
1782299777610,-0.052642,0.98345,9.349858,-0.116646,-0.018548,0.04705,25.9125,-7.29375,-57.637501
1782299777620,-0.12682,0.935594,9.447963,-0.086713,0.000389,0.043385,25.500002,-8.775001,-57.206253
1782299777626,-0.196211,0.914058,9.529319,-0.053116,0.013828,0.043996,25.500002,-8.775001,-57.206253
1782299777628,-0.196211,0.914058,9.529319,-0.053116,0.013828,0.043996,25.63125,-8.625,-56.737503
1782299777634,-0.232104,0.926022,9.60589,-0.017686,0.023602,0.044607,25.63125,-8.625,-56.737503
1782299777639,-0.232104,0.926022,9.60589,-0.017686,0.023602,0.044607,25.200001,-9.056251,-57.206253
1782299777642,-0.232104,0.926022,9.60589,0.020188,0.024212,0.045218,25.200001,-9.056251,-57.206253
1782299777643,-0.184247,0.9667,9.708781,0.020188,0.024212,0.045218,25.200001,-9.056251,-57.206253
1782299777648,-0.184247,0.9667,9.708781,0.020188,0.024212,0.045218,24.712502,-8.775001,-56.437504
1782299777651,-0.138784,1.057628,9.787744,0.061116,0.01566,0.040942,24.712502,-8.775001,-56.437504
1782299777658,-0.138784,1.057628,9.787744,0.061116,0.01566,0.040942,24.393751,-8.025001,-56.437504
1782299777660,-0.112463,1.155733,9.763816,0.0996,-0.005109,0.033001,24.393751,-8.025001,-56.437504
1782299777670,-0.07657,1.26341,9.680068,0.133198,-0.035041,0.020172,24.731251,-9.056251,-56.456253
1782299777678,-0.086142,1.344766,9.548461,0.155189,-0.069861,0.002457,23.493752,-8.15625,-56.737503
1782299777687,-0.083749,1.430908,9.452749,0.160076,-0.109567,-0.015869,23.493752,-8.15625,-56.737503
1782299777688,-0.083749,1.430908,9.452749,0.160076,-0.109567,-0.015869,26.231251,-8.793751,-56.437504
1782299777694,-0.021535,1.473979,9.397714,0.144804,-0.137056,-0.032362,26.231251,-8.793751,-56.437504
1782299777701,-0.021535,1.473979,9.397714,0.144804,-0.137056,-0.032362,26.437502,-9.65625,-57.506252
1782299777703,0.002393,1.471586,9.44557,0.114872,-0.142554,-0.049466,26.437502,-9.65625,-57.506252
1782299777709,0.002393,1.471586,9.44557,0.114872,-0.142554,-0.049466,27.4125,-7.48125,-56.737503
1782299777711,0.023928,1.488336,9.648961,0.087994,-0.127282,-0.063516,27.4125,-7.48125,-56.737503
1782299777718,0.023928,1.488336,9.648961,0.087994,-0.127282,-0.063516,26.868752,-7.89375,-58.556252
1782299777724,0.038285,1.509871,9.900207,0.076998,-0.095517,-0.080009,26.868752,-7.89375,-58.556252
1782299777729,0.038285,1.509871,9.900207,0.082496,-0.057643,-0.096503,26.868752,-7.89375,-58.556252
1782299777730,0.064606,1.495514,10.151454,0.082496,-0.057643,-0.096503,24.637501,-9.9375,-57.525002
1782299777737,0.124427,1.440479,10.328522,0.093492,-0.016715,-0.111164,24.637501,-9.9375,-57.525002
1782299777738,0.124427,1.440479,10.328522,0.093492,-0.016715,-0.111164,25.462502,-8.043751,-56.887501
1782299777746,0.184247,1.392623,10.551055,0.09899,0.027267,-0.127046,25.462502,-8.043751,-56.887501
1782299777749,0.184247,1.392623,10.551055,0.09899,0.027267,-0.127046,26.118752,-9.65625,-57.056252
1782299777754,0.222533,1.330409,10.909978,0.095935,0.07186,-0.144761,26.118752,-9.65625,-57.056252
1782299777759,0.222533,1.330409,10.909978,0.095935,0.07186,-0.144761,26.362501,-8.19375,-56.737503
1782299777763,0.263211,1.244268,11.25933,0.086161,0.103014,-0.163087,26.362501,-8.19375,-56.737503
1782299777769,0.263211,1.244268,11.25933,0.086161,0.103014,-0.163087,25.35,-7.875,-58.106251
1782299777771,0.270389,1.11027,11.584754,0.073944,0.115842,-0.180802,25.35,-7.875,-58.106251
1782299777778,0.270389,1.11027,11.584754,0.073944,0.115842,-0.180802,25.968752,-9.075001,-57.206253
1782299777780,0.308674,0.937986,11.874285,0.066614,0.115231,-0.197906,25.968752,-9.075001,-57.206253
1782299777789,0.337388,0.856631,12.197317,0.080053,0.122562,-0.216232,25.593752,-8.19375,-56.287502
1782299777797,0.368495,0.856631,12.340886,0.131976,0.132946,-0.233947,25.593752,-8.19375,-56.287502
1782299777799,0.368495,0.856631,12.340886,0.131976,0.132946,-0.233947,26.437502,-8.925,-57.806252
1782299777806,0.428315,0.940379,12.290637,0.215665,0.152494,-0.24983,26.437502,-8.925,-57.806252
1782299777808,0.428315,0.940379,12.290637,0.215665,0.152494,-0.24983,27.206251,-10.40625,-57.075001
1782299777814,0.488136,1.115055,11.989141,0.309738,0.17082,-0.265101,27.206251,-10.40625,-57.075001
1782299777823,0.514457,1.31366,11.591933,0.386707,0.176318,-0.279151,27.7875,-10.125,-56.456253
1782299777829,0.514457,1.31366,11.591933,0.386707,0.176318,-0.279151,27.750002,-9.09375,-56.437504
1782299777831,0.528814,1.509871,11.24258,0.424581,0.154938,-0.29259,27.750002,-9.09375,-56.437504
1782299777839,0.528814,1.509871,11.24258,0.424581,0.154938,-0.29259,25.200001,-8.775001,-57.206253
1782299777840,0.504886,1.682154,10.998513,0.409309,0.118286,-0.302975,25.200001,-8.775001,-57.206253
1782299777850,0.514457,1.782653,10.842979,0.344557,0.078579,-0.310305,28.087502,-9.84375,-56.906254
1782299777857,0.524028,1.787439,10.778372,0.246208,0.041317,-0.314581,28.087502,-9.84375,-56.906254
1782299777859,0.524028,1.787439,10.778372,0.246208,0.041317,-0.314581,27.31875,-9.825001,-56.456253
1782299777866,0.581456,1.684547,10.718552,0.129533,0.010163,-0.317025,27.31875,-9.825001,-56.456253
1782299777868,0.581456,1.684547,10.718552,0.129533,0.010163,-0.317025,27.712502,-8.0625,-56.437504
1782299777875,0.684347,1.447658,10.701803,-0.002414,-0.024046,-0.319468,27.712502,-8.0625,-56.437504
1782299777880,0.684347,1.447658,10.701803,-0.002414,-0.024046,-0.319468,25.293751,-8.19375,-56.287502
1782299777883,0.799203,1.083949,10.785552,-0.149021,-0.064974,-0.323744,25.293751,-8.19375,-56.287502
1782299777888,0.799203,1.083949,10.785552,-0.149021,-0.064974,-0.323744,26.456251,-7.63125,-55.068752
1782299777891,0.851845,0.70349,11.046369,-0.30357,-0.105291,-0.323744,26.456251,-7.63125,-55.068752
1782299777898,0.851845,0.70349,11.046369,-0.30357,-0.105291,-0.323744,27.0375,-9.525001,-57.656254
1782299777900,0.87338,0.301496,11.410078,-0.439793,-0.126671,-0.317636,27.0375,-9.525001,-57.656254
1782299777910,0.839881,-0.083749,11.836,-0.530201,-0.127893,-0.310916,26.550001,-8.043751,-57.656254
1782299777917,0.705883,-0.387637,12.14946,-0.536921,-0.124228,-0.301142,26.550001,-8.043751,-57.656254
1782299777918,0.705883,-0.387637,12.14946,-0.536921,-0.124228,-0.301142,26.831251,-8.64375,-56.737503
1782299777926,0.55992,-0.521635,12.326529,-0.455676,-0.098571,-0.284649,26.831251,-8.64375,-56.737503
1782299777928,0.55992,-0.521635,12.326529,-0.455676,-0.098571,-0.284649,24.862501,-6.69375,-58.087502
1782299777934,0.507278,-0.533599,12.178174,-0.299905,-0.046648,-0.263269,24.862501,-6.69375,-58.087502
1782299777939,0.507278,-0.533599,12.178174,-0.299905,-0.046648,-0.263269,26.962502,-7.0125,-57.637501
1782299777943,0.452243,-0.48335,11.71636,-0.108704,0.006497,-0.246775,26.962502,-7.0125,-57.637501
1782299777948,0.452243,-0.48335,11.71636,-0.108704,0.006497,-0.246775,25.575001,-7.1625,-56.268753
1782299777952,0.433101,-0.29671,11.079869,0.067225,0.040095,-0.235169,25.575001,-7.1625,-56.268753
1782299777959,0.433101,-0.29671,11.079869,0.067225,0.040095,-0.235169,27.806252,-6.75,-55.968754
1782299777961,0.411565,-0.026321,10.452949,0.193063,0.04376,-0.233336,27.806252,-6.75,-55.968754
1782299777970,0.404387,0.248854,9.861922,0.255371,0.030321,-0.237613,25.875002,-6.5625,-57.187504
1782299777977,0.421137,0.437887,9.24218,0.253538,0.001,-0.24311,25.875002,-6.5625,-57.187504
1782299777978,0.421137,0.437887,9.24218,0.253538,0.001,-0.24311,26.175001,-6.5625,-57.187504
1782299777986,0.452243,0.619741,8.813865,0.193674,-0.046037,-0.248608,26.175001,-6.5625,-57.187504
1782299777988,0.452243,0.619741,8.813865,0.193674,-0.046037,-0.248608,27.225,-6.58125,-56.868752
1782299777995,0.636491,0.782453,8.545869,0.094103,-0.082078,-0.257771,27.225,-6.58125,-56.868752
1782299777999,0.636491,0.782453,8.545869,0.094103,-0.082078,-0.257771,24.206251,-6.4125,-56.718754
1782299778003,0.72024,0.631705,8.531512,-0.023183,-0.091852,-0.262658,24.206251,-6.4125,-56.718754
1782299778009,0.72024,0.631705,8.531512,-0.023183,-0.091852,-0.262658,26.925001,-7.03125,-56.418751
1782299778012,0.713061,0.643669,8.371193,-0.122143,-0.07658,-0.255328,26.925001,-7.03125,-56.418751
1782299778019,0.713061,0.643669,8.371193,-0.122143,-0.07658,-0.255328,25.9125,-6.2625,-58.387501
1782299778024,0.835095,0.567099,8.498013,-0.178343,-0.052146,-0.255938,25.9125,-6.2625,-58.387501
1782299778029,0.87338,0.555135,8.505191,-0.192393,0.018104,-0.255328,27.4125,-7.48125,-56.737503
1782299778040,0.839881,0.497707,8.51237,-0.166737,0.079801,-0.252884,27.4125,-7.48125,-56.737503
1782299778046,0.827917,0.413958,8.416657,-0.123365,0.145164,-0.246165,27.4125,-7.48125,-56.737503
1782299778048,0.827917,0.413958,8.416657,-0.123365,0.145164,-0.246165,25.5375,-6.43125,-56.268753
1782299778054,0.768096,0.370888,8.337694,-0.08427,0.213581,-0.240056,25.5375,-6.43125,-56.268753
1782299778059,0.768096,0.370888,8.337694,-0.08427,0.213581,-0.240056,26.493752,-5.83125,-57.937504
1782299778063,0.725025,0.358923,8.249159,-0.060446,0.271002,-0.238834,26.493752,-5.83125,-57.937504
1782299778068,0.725025,0.358923,8.249159,-0.060446,0.271002,-0.238834,25.275002,-6.4125,-57.037502
1782299778072,0.641276,0.344566,8.134304,-0.066555,0.302767,-0.244332,25.275002,-6.4125,-57.037502
1782299778078,0.641276,0.344566,8.134304,-0.066555,0.302767,-0.244332,25.593752,-6.4125,-57.787502
1782299778080,0.545564,0.351745,8.107983,-0.104428,0.278332,-0.255938,25.593752,-6.4125,-57.787502
1782299778089,0.428315,0.387637,8.196517,-0.160628,0.217246,-0.269988,25.968752,-4.95,-57.018753
1782299778099,0.315853,0.404387,8.359229,-0.213773,0.146385,-0.285871,26.737501,-5.7,-56.718754
1782299778106,0.239282,0.385244,8.517155,-0.238819,0.096295,-0.299921,26.737501,-5.7,-56.718754
1782299778109,0.239282,0.385244,8.517155,-0.238819,0.096295,-0.299921,27.675001,-7.05,-56.118752
1782299778114,0.160319,0.409173,8.557833,-0.227212,0.074303,-0.311527,27.675001,-7.05,-56.118752
1782299778121,0.160319,0.409173,8.557833,-0.227212,0.074303,-0.311527,27.31875,-6.15,-55.500004
1782299778125,0.112463,0.492921,8.474084,-0.181397,0.084688,-0.319468,27.31875,-6.15,-55.500004
1782299778129,0.112463,0.492921,8.474084,-0.181397,0.084688,-0.319468,26.643751,-3.20625,-56.231251
1782299778132,0.141177,0.607777,8.328123,-0.11237,0.096295,-0.324966,26.643751,-3.20625,-56.231251
1782299778138,0.141177,0.607777,8.328123,-0.11237,0.096295,-0.324966,27.31875,-4.96875,-56.718754
1782299778140,0.260818,0.734597,8.174982,-0.043953,0.111566,-0.328021,27.31875,-4.96875,-56.718754
1782299778149,0.334995,0.87338,8.064912,0.004916,0.125616,-0.32741,27.206251,-6.3,-56.418751
1782299778159,0.337388,1.002593,8.024234,0.028129,0.127449,-0.324966,28.368752,-4.0875,-57.150002
1782299778166,0.308674,1.107877,8.031412,0.025075,0.10729,-0.321912,28.368752,-4.0875,-57.150002
1782299778168,0.308674,1.107877,8.031412,0.025075,0.10729,-0.321912,26.00625,-4.95,-57.768753
1782299778175,0.27996,1.172483,8.045769,-0.001803,0.081023,-0.310916,26.00625,-4.95,-57.768753
1782299778179,0.27996,1.172483,8.045769,-0.001803,0.081023,-0.310916,27.150002,-4.5375,-56.100002
1782299778183,0.258425,1.201197,8.098412,-0.049451,0.070027,-0.291979,27.150002,-4.5375,-56.100002
1782299778189,0.258425,1.201197,8.098412,-0.049451,0.070027,-0.291979,26.643751,-2.90625,-56.231251
1782299778192,0.241675,1.205983,8.225231,-0.108704,0.067584,-0.26388,26.643751,-2.90625,-56.231251
1782299778199,0.241675,1.205983,8.225231,-0.108704,0.067584,-0.26388,26.606251,-3.20625,-54.881252
1782299778201,0.232104,1.210768,8.423835,-0.163071,0.082855,-0.230893,26.606251,-3.20625,-54.881252
1782299778209,0.210568,1.210768,8.617653,-0.203999,0.103625,-0.195463,27.337502,-3.91875,-58.068752
1782299778219,0.157926,1.143769,8.79233,-0.224158,0.120729,-0.158811,27.6,-4.5375,-56.400002
1782299778226,0.148355,1.071985,8.976577,-0.222325,0.123173,-0.130711,27.6,-4.5375,-56.400002
1782299778231,0.148355,1.071985,8.976577,-0.222325,0.123173,-0.130711,27.581251,-3.80625,-56.100002
1782299778235,0.12682,1.01695,9.158432,-0.211941,0.123173,-0.109331,27.581251,-3.80625,-56.100002
1782299778239,0.12682,1.01695,9.158432,-0.211941,0.123173,-0.109331,26.418751,-4.51875,-56.850002
1782299778243,0.155533,0.957129,9.273287,-0.197891,0.115231,-0.091005,26.418751,-4.51875,-56.850002
1782299778249,0.155533,0.957129,9.273287,-0.197891,0.115231,-0.091005,28.012501,-1.425,-57.731251
1782299778252,0.193819,0.87338,9.371393,-0.189949,0.108512,-0.077566,28.012501,-1.425,-57.731251
1782299778258,0.193819,0.87338,9.371393,-0.189949,0.108512,-0.077566,27.731251,-2.90625,-57.450001
1782299778260,0.212961,0.820738,9.483856,-0.187506,0.089575,-0.068403,27.731251,-2.90625,-57.450001
1782299778269,0.229711,0.792024,9.593925,-0.185673,0.05781,-0.058018,27.862501,-3.05625,-56.381252
1782299778281,0.265603,0.808774,9.713566,-0.172845,0.012606,-0.045801,27.993752,-1.44375,-57.431252
1782299778287,0.260818,0.89013,9.761423,-0.130085,-0.015494,-0.029918,27.993752,-1.44375,-57.431252
1782299778288,0.260818,0.89013,9.761423,-0.130085,-0.015494,-0.029918,27.975,-2.475,-55.931252
1782299778295,0.270389,1.01695,9.675281,-0.058003,-0.038707,-0.012203,27.975,-2.475,-55.931252
1782299778299,0.270389,1.01695,9.675281,-0.058003,-0.038707,-0.012203,27.50625,-2.025,-55.762501
1782299778303,0.291924,1.22034,9.474285,0.030573,-0.042983,0.003679,27.50625,-2.025,-55.762501
1782299778309,0.291924,1.22034,9.474285,0.030573,-0.042983,0.003679,25.856251,-1.40625,-56.981251
1782299778312,0.263211,1.435694,9.21586,0.108763,-0.057643,0.020172,25.856251,-1.40625,-56.981251
1782299778318,0.263211,1.435694,9.21586,0.108763,-0.057643,0.020172,27.69375,-3.20625,-55.931252
1782299778320,0.267996,1.629512,8.993327,0.156411,-0.058254,0.037277,27.69375,-3.20625,-55.931252
1782299778329,0.303888,1.744368,8.85215,0.158243,-0.06925,0.052548,26.212502,-2.8875,-57.000004
1782299778340,0.358923,1.823331,8.821044,0.117316,-0.084521,0.061711,25.743752,-3.3375,-56.081253
1782299778346,0.29671,1.81376,9.043577,0.04951,-0.093684,0.068431,25.743752,-3.3375,-56.081253
1782299778348,0.29671,1.81376,9.043577,0.04951,-0.093684,0.068431,27.206251,-1.44375,-56.212502
1782299778355,0.380459,1.820938,9.431214,-0.025627,-0.117508,0.07515,27.206251,-1.44375,-56.212502
1782299778361,0.380459,1.820938,9.431214,-0.025627,-0.117508,0.07515,27.581251,-3.7875,-56.400002
1782299778363,0.363709,1.741975,9.948063,-0.074496,-0.108956,0.069652,27.581251,-3.7875,-56.400002
1782299778369,0.363709,1.741975,9.948063,-0.074496,-0.108956,0.069652,25.800001,-2.175,-54.412502
1782299778372,0.401994,1.607977,10.388342,-0.080605,-0.09063,0.070263,25.800001,-2.175,-54.412502
1782299778378,0.401994,1.607977,10.388342,-0.080605,-0.09063,0.070263,25.44375,-2.4375,-56.681252
1782299778380,0.40678,1.416551,10.718552,-0.057392,-0.073526,0.072096,25.44375,-2.4375,-56.681252
1782299778389,0.411565,1.215554,10.97937,-0.01402,-0.038096,0.073929,25.44375,-2.1375,-56.981251
1782299778399,0.363709,1.040878,11.225831,0.04279,-0.002666,0.081259,26.962502,-2.90625,-57.000004
1782299778406,0.356531,0.870987,11.44597,0.111818,0.03643,0.090422,26.962502,-2.90625,-57.000004
1782299778408,0.356531,0.870987,11.44597,0.111818,0.03643,0.090422,26.212502,-2.8875,-57.000004
1782299778415,0.363709,0.739382,11.66611,0.183289,0.068806,0.099585,26.212502,-2.8875,-57.000004
1782299778419,0.363709,0.739382,11.66611,0.183289,0.068806,0.099585,27.112501,-2.30625,-57.131252
1782299778424,0.39003,0.643669,11.838393,0.248041,0.092018,0.103861,27.112501,-2.30625,-57.131252
1782299778429,0.39003,0.643669,11.838393,0.248041,0.092018,0.103861,25.781252,-1.9875,-58.350002
1782299778432,0.368495,0.617348,11.977177,0.301797,0.090797,0.102028,25.781252,-1.9875,-58.350002
1782299778442,0.260818,0.70349,12.027426,0.34639,0.059643,0.09592,24.487501,-1.55625,-56.381252
1782299778450,0.136391,0.842274,12.015462,0.392205,0.007108,0.088589,25.743752,-4.06875,-55.331253
1782299778459,0.074178,1.019342,11.871892,0.440463,-0.0271,0.085535,24.993752,-3.76875,-55.781254
1782299778466,0.074178,1.019342,11.871892,0.486278,-0.014272,0.087368,24.993752,-3.76875,-55.781254
1782299778467,0.01675,1.189233,11.611075,0.486278,-0.014272,0.087368,24.993752,-3.76875,-55.781254
1782299778468,0.01675,1.189233,11.611075,0.486278,-0.014272,0.087368,26.081251,-4.51875,-56.100002
1782299778475,-0.105284,1.292124,11.347865,0.511323,0.022991,0.092254,26.081251,-4.51875,-56.100002
1782299778479,-0.105284,1.292124,11.347865,0.511323,0.022991,0.092254,25.181252,-4.65,-55.950001
1782299778484,-0.272782,1.440479,11.161224,0.500939,0.057199,0.101417,25.181252,-4.65,-55.950001
1782299778489,-0.272782,1.440479,11.161224,0.500939,0.057199,0.101417,25.593752,-5.38125,-58.837502
1782299778492,-0.375673,1.646262,11.084654,0.452069,0.076747,0.109359,25.593752,-5.38125,-58.837502
1782299778498,-0.375673,1.646262,11.084654,0.452069,0.076747,0.109359,25.950001,-3.61875,-57.450001
1782299778501,-0.378066,1.739582,11.094225,0.371435,0.075525,0.113024,25.950001,-3.61875,-57.450001
1782299778509,-0.378066,1.739582,11.094225,0.274919,0.058421,0.113024,26.118752,-7.03125,-54.600002
1782299778510,-0.301496,1.663012,11.161224,0.274919,0.058421,0.113024,26.118752,-7.03125,-54.600002
1782299778519,-0.301496,1.663012,11.161224,0.171682,0.042538,0.111191,26.118752,-7.03125,-54.600002
1782299778520,-0.227318,1.411765,11.177974,0.171682,0.042538,0.111191,25.931252,-4.21875,-56.250004
1782299778527,-0.165105,1.026521,11.163617,0.053175,0.019326,0.10997,25.931252,-4.21875,-56.250004
1782299778528,-0.165105,1.026521,11.163617,0.053175,0.019326,0.10997,25.931252,-4.21875,-56.250004
1782299778535,-0.090927,0.634098,11.285651,-0.075718,-0.022213,0.105693,25.931252,-4.21875,-56.250004
1782299778544,-0.040678,0.232104,11.570397,-0.199112,-0.088798,0.097752,25.237501,-5.38125,-57.018753
1782299778549,-0.040678,0.232104,11.570397,-0.199112,-0.088798,0.097752,24.450001,-5.68125,-55.950001
1782299778552,0.007178,-0.088534,11.936499,-0.28219,-0.165156,0.092865,24.450001,-5.68125,-55.950001
1782299778558,0.007178,-0.088534,11.936499,-0.28219,-0.165156,0.092865,25.35,-5.25,-56.100002
1782299778561,0.035892,-0.323031,12.099211,-0.298073,-0.229296,0.097141,25.35,-5.25,-56.100002
1782299778568,0.035892,-0.323031,12.099211,-0.298073,-0.229296,0.097141,23.85,-4.78125,-56.868752
1782299778569,0.074178,-0.449851,12.044176,-0.230877,-0.257396,0.107526,23.85,-4.78125,-56.868752
1782299778579,0.074178,-0.449851,12.044176,-0.083048,-0.234794,0.1173,23.85,-4.78125,-56.868752
1782299778580,0.026321,-0.461815,11.713966,-0.083048,-0.234794,0.1173,24.393751,-4.2,-55.481251
1782299778587,-0.023928,-0.380459,11.091833,0.107542,-0.169432,0.125852,24.393751,-4.2,-55.481251
1782299778588,-0.023928,-0.380459,11.091833,0.107542,-0.169432,0.125852,23.53125,-3.73125,-57.150002
1782299778596,-0.007178,-0.141177,10.295023,0.279195,-0.093684,0.139291,23.53125,-3.73125,-57.150002
1782299778598,-0.007178,-0.141177,10.295023,0.279195,-0.093684,0.139291,23.868752,-5.5125,-56.418751
1782299778604,-0.083749,0.20339,9.620246,0.389761,-0.037485,0.150897,23.868752,-5.5125,-56.418751
1782299778609,-0.083749,0.20339,9.620246,0.389761,-0.037485,0.150897,23.868752,-4.7625,-57.618752
1782299778612,-0.083749,0.20339,9.620246,0.42397,0.002221,0.161893,23.868752,-4.7625,-57.618752
1782299778613,-0.162712,0.555135,9.077076,0.42397,0.002221,0.161893,23.868752,-4.7625,-57.618752
1782299778618,-0.162712,0.555135,9.077076,0.42397,0.002221,0.161893,24.4125,-6.99375,-57.937504
1782299778621,-0.210568,0.842274,8.684653,0.388539,0.021158,0.174721,24.4125,-6.99375,-57.937504
1782299778629,-0.210568,0.842274,8.684653,0.388539,0.021158,0.174721,24.656252,-5.8125,-57.637501
1782299778630,-0.256032,1.026521,8.469299,0.303018,0.028489,0.183884,24.656252,-5.8125,-57.637501
1782299778639,-0.256032,1.026521,8.469299,0.204669,0.037041,0.183884,24.656252,-5.8125,-57.637501
1782299778640,-0.289532,1.012164,8.414264,0.204669,0.037041,0.183884,23.4375,-5.3625,-57.768753
1782299778652,-0.33021,1.033699,8.407086,0.095935,0.056588,0.181441,22.481251,-4.4625,-56.850002
1782299778655,-0.33021,1.033699,8.407086,-0.009133,0.05781,0.172889,22.481251,-4.4625,-56.850002
1782299778656,-0.320638,0.827917,8.502799,-0.009133,0.05781,0.172889,22.481251,-4.4625,-56.850002
1782299778658,-0.320638,0.827917,8.502799,-0.009133,0.05781,0.172889,23.418751,-6.39375,-55.968754
1782299778664,-0.267996,0.631705,8.737295,-0.101985,0.037651,0.164337,23.418751,-6.39375,-55.968754
1782299778669,-0.267996,0.631705,8.737295,-0.101985,0.037651,0.164337,22.518751,-5.49375,-56.868752
1782299778672,-0.267996,0.631705,8.737295,-0.181397,0.015049,0.157617,22.518751,-5.49375,-56.868752
1782299778673,-0.454636,0.425922,9.065112,-0.181397,0.015049,0.157617,22.518751,-5.49375,-56.868752
1782299778679,-0.454636,0.425922,9.065112,-0.181397,0.015049,0.157617,22.06875,-6.975,-55.818752
1782299778681,-0.485743,0.251246,9.196717,-0.234543,-0.01305,0.160671,22.06875,-6.975,-55.818752
1782299778689,-0.485743,0.251246,9.196717,-0.234543,-0.01305,0.160671,23.90625,-6.99375,-56.418751
1782299778690,-0.344566,0.090927,9.349858,-0.271805,-0.033209,0.153341,23.90625,-6.99375,-56.418751
1782299778701,-0.246461,-0.064606,9.558033,-0.296851,-0.046648,0.1454,23.025002,-7.125,-57.037502
1782299778707,-0.12682,-0.074178,9.723138,-0.300516,-0.04848,0.150897,23.025002,-7.125,-57.037502
1782299778708,-0.12682,-0.074178,9.723138,-0.300516,-0.04848,0.150897,22.650002,-6.09375,-55.968754
1782299778715,-0.12682,-0.074178,9.723138,-0.280357,-0.044204,0.160671,22.650002,-6.09375,-55.968754
1782299778716,-0.095713,-0.047856,9.768602,-0.280357,-0.044204,0.160671,22.650002,-6.09375,-55.968754
1782299778718,-0.095713,-0.047856,9.768602,-0.280357,-0.044204,0.160671,21.356251,-6.50625,-57.187504
1782299778724,-0.043071,0.0,9.711174,-0.237597,-0.041761,0.172278,21.356251,-6.50625,-57.187504
1782299778729,-0.043071,0.0,9.711174,-0.237597,-0.041761,0.172278,23.081251,-5.5125,-55.800003
1782299778732,-0.057428,0.045464,9.507783,-0.181397,-0.031376,0.183884,23.081251,-5.5125,-55.800003
1782299778739,-0.057428,0.045464,9.507783,-0.181397,-0.031376,0.183884,22.856251,-6.525,-57.187504
1782299778741,-0.055035,0.119641,9.270895,-0.116035,-0.014883,0.194269,22.856251,-6.525,-57.187504
1782299778752,-0.066999,0.205783,9.014863,-0.045174,-0.004498,0.197934,22.800001,-4.4625,-57.618752
1782299778759,-0.066999,0.205783,9.014863,0.02141,0.008941,0.19488,22.800001,-4.4625,-57.618752
1782299778760,-0.095713,0.325424,8.74926,0.02141,0.008941,0.19488,23.00625,-7.125,-56.268753
1782299778767,-0.114855,0.492921,8.454942,0.074555,0.013217,0.186328,23.00625,-7.125,-56.268753
1782299778768,-0.114855,0.492921,8.454942,0.074555,0.013217,0.186328,22.837502,-6.24375,-56.868752
1782299778775,-0.114855,0.492921,8.454942,0.095324,0.013828,0.175943,22.837502,-6.24375,-56.868752
1782299778776,-0.129212,0.631705,8.127125,0.095324,0.013828,0.175943,22.837502,-6.24375,-56.868752
1782299778778,-0.129212,0.631705,8.127125,0.095324,0.013828,0.175943,20.081251,-5.625,-56.268753
1782299778784,-0.155533,0.772882,7.866308,0.073944,-0.003276,0.164337,20.081251,-5.625,-56.268753
1782299778789,-0.155533,0.772882,7.866308,0.073944,-0.003276,0.164337,22.293751,-7.10625,-57.787502
1782299778792,-0.155533,0.772882,7.866308,0.019577,-0.036874,0.155174,22.293751,-7.10625,-57.787502
1782299778793,-0.107677,0.870987,7.753845,0.019577,-0.036874,0.155174,22.293751,-7.10625,-57.787502
1782299778798,-0.107677,0.870987,7.753845,0.019577,-0.036874,0.155174,20.362501,-4.89375,-56.250004
1782299778801,-0.062213,0.933201,7.801702,-0.050672,-0.077191,0.1454,20.362501,-4.89375,-56.250004
1782299778809,-0.062213,0.933201,7.801702,-0.050672,-0.077191,0.1454,22.087502,-7.275,-56.118752
1782299778810,-0.047856,0.961915,7.928521,-0.114202,-0.113843,0.136237,22.087502,-7.275,-56.118752
1782299778819,-0.047856,0.961915,7.928521,-0.157574,-0.13278,0.127685,22.087502,-7.275,-56.118752
1782299778820,-0.014357,0.98345,8.074483,-0.157574,-0.13278,0.127685,22.293751,-6.65625,-58.087502
1782299778827,0.021535,0.954736,8.249159,-0.174067,-0.141943,0.117911,22.293751,-6.65625,-58.087502
1782299778828,0.021535,0.954736,8.249159,-0.174067,-0.141943,0.117911,20.868752,-6.05625,-57.018753
1782299778836,0.088534,0.899701,8.457335,-0.169791,-0.139499,0.105083,20.868752,-6.05625,-57.018753
1782299778838,0.088534,0.899701,8.457335,-0.169791,-0.139499,0.105083,20.400002,-6.65625,-55.968754
1782299778845,0.088534,0.899701,8.457335,-0.149632,-0.134002,0.087978,20.400002,-6.65625,-55.968754
1782299778853,0.145962,0.914058,8.653546,-0.1197,-0.134002,0.067209,21.7875,-6.525,-56.887501
1782299778859,0.145962,0.914058,8.653546,-0.1197,-0.134002,0.067209,20.85,-5.325,-57.018753
1782299778861,0.145962,0.914058,8.653546,-0.084881,-0.131558,0.043385,20.85,-5.325,-57.018753
1782299778862,0.148355,0.947558,8.687046,-0.084881,-0.131558,0.043385,20.85,-5.325,-57.018753
1782299778869,0.148355,0.947558,8.687046,-0.084881,-0.131558,0.043385,20.8125,-5.34375,-55.950001
1782299778870,0.136391,0.995414,8.756438,-0.043953,-0.121784,0.019562,20.8125,-5.34375,-55.950001
1782299778879,0.136391,0.995414,8.756438,-0.009133,-0.09796,-0.005484,20.8125,-5.34375,-55.950001
1782299778880,0.167498,1.028914,8.718153,-0.009133,-0.09796,-0.005484,21.337502,-6.95625,-56.418751
1782299778887,0.167498,1.028914,8.718153,0.006138,-0.079024,-0.028697,21.337502,-6.95625,-56.418751
1782299778888,0.181855,1.043271,8.64876,0.006138,-0.079024,-0.028697,18.88125,-6.6375,-55.518753
1782299778896,0.177069,1.024128,8.636797,-0.006079,-0.069861,-0.048244,18.88125,-6.6375,-55.518753
1782299778898,0.177069,1.024128,8.636797,-0.006079,-0.069861,-0.048244,20.0625,-4.875,-56.250004
1782299778904,0.148355,0.981057,8.794723,-0.037844,-0.066806,-0.062905,20.0625,-4.875,-56.250004
1782299778909,0.148355,0.981057,8.794723,-0.037844,-0.066806,-0.062905,19.5,-4.70625,-57.918751
1782299778913,0.124427,0.918844,9.01247,-0.067776,-0.058865,-0.075733,19.5,-4.70625,-57.918751
1782299778918,0.124427,0.918844,9.01247,-0.067776,-0.058865,-0.075733,19.200001,-6.1875,-56.418751
1782299778921,0.100499,0.87338,9.175182,-0.083659,-0.044815,-0.08734,19.200001,-6.1875,-56.418751
1782299778928,0.100499,0.87338,9.175182,-0.083659,-0.044815,-0.08734,20.081251,-4.575,-57.468754
1782299778930,0.038285,0.839881,9.321144,-0.076329,-0.029544,-0.098335,20.081251,-4.575,-57.468754
1782299778939,0.038285,0.839881,9.321144,-0.039677,-0.01305,-0.106277,20.081251,-4.575,-57.468754
1782299778940,-0.011964,0.940379,9.464713,-0.039677,-0.01305,-0.106277,21.918751,-4.89375,-57.468754
1782299778947,-0.004786,1.081556,9.548461,0.023853,0.005276,-0.10872,21.918751,-4.89375,-57.468754
1782299778948,-0.004786,1.081556,9.548461,0.023853,0.005276,-0.10872,19.200001,-5.45625,-57.168751
1782299778960,-0.011964,1.232304,9.522141,0.100211,0.03643,-0.107498,20.19375,-5.175,-55.800003
1782299778964,0.0,1.368695,9.373786,0.172293,0.066362,-0.105666,20.19375,-5.175,-55.800003
1782299778970,0.0,1.368695,9.373786,0.172293,0.066362,-0.105666,21.487501,-6.075,-57.018753
1782299778973,0.023928,1.533799,9.177575,0.220552,0.082245,-0.102611,21.487501,-6.075,-57.018753
1782299778979,0.023928,1.533799,9.177575,0.220552,0.082245,-0.102611,19.5,-5.15625,-57.618752
1782299778981,0.0335,1.694118,9.081861,0.234602,0.087742,-0.102001,19.5,-5.15625,-57.618752
1782299778988,0.0335,1.694118,9.081861,0.234602,0.087742,-0.102001,19.5,-5.15625,-57.618752
1782299778990,0.007178,1.789831,9.077076,0.211389,0.081023,-0.099557,19.5,-5.15625,-57.618752
1782299778999,0.007178,1.789831,9.077076,0.153357,0.067584,-0.097724,19.5,-5.15625,-57.618752
1782299779000,-0.052642,1.816152,9.187146,0.153357,0.067584,-0.097724,20.268751,-5.175,-57.918751
1782299779007,-0.074178,1.787439,9.467106,0.076998,0.038262,-0.097724,20.268751,-5.175,-57.918751
1782299779009,-0.074178,1.787439,9.467106,0.076998,0.038262,-0.097724,20.6625,-7.21875,-58.706253
1782299779016,-0.124427,1.758725,9.904993,0.001862,-0.003887,-0.102611,20.6625,-7.21875,-58.706253
1782299779018,-0.124427,1.758725,9.904993,0.001862,-0.003887,-0.102611,19.331251,-5.60625,-56.268753
1782299779025,-0.131605,1.674976,10.330915,-0.048229,-0.043594,-0.111774,19.331251,-5.60625,-56.268753
1782299779029,-0.131605,1.674976,10.330915,-0.048229,-0.043594,-0.111774,20.025002,-6.9375,-57.937504
1782299779033,-0.088534,1.548156,10.737694,-0.067776,-0.068639,-0.122159,20.025002,-6.9375,-57.937504
1782299779038,-0.088534,1.548156,10.737694,-0.067776,-0.068639,-0.122159,20.118752,-6.35625,-56.718754
1782299779041,-0.088534,1.548156,10.737694,-0.061668,-0.090019,-0.135598,20.118752,-6.35625,-56.718754
1782299779042,-0.047856,1.40698,11.084654,-0.061668,-0.090019,-0.135598,20.118752,-6.35625,-56.718754
1782299779048,-0.047856,1.40698,11.084654,-0.061668,-0.090019,-0.135598,18.731251,-4.40625,-57.618752
1782299779050,0.019143,1.249053,11.38615,-0.043342,-0.099182,-0.150259,18.731251,-4.40625,-57.618752
1782299779060,0.114855,1.086342,11.663717,-0.023183,-0.083911,-0.159422,18.731251,-4.40625,-57.618752
1782299779061,0.114855,1.086342,11.663717,-0.023183,-0.083911,-0.159422,20.231251,-6.50625,-55.368752
1782299779067,0.181855,0.933201,11.958034,0.001862,-0.040539,-0.168585,20.231251,-6.50625,-55.368752
1782299779068,0.181855,0.933201,11.958034,0.001862,-0.040539,-0.168585,18.88125,-6.3375,-55.968754
1782299779076,0.179462,0.878166,12.180566,0.045844,0.015049,-0.17958,18.88125,-6.3375,-55.968754
1782299779078,0.179462,0.878166,12.180566,0.045844,0.015049,-0.17958,18.300001,-6.0375,-56.718754
1782299779084,0.236889,0.978664,12.237995,0.122202,0.073693,-0.191187,18.300001,-6.0375,-56.718754
1782299779089,0.236889,0.978664,12.237995,0.122202,0.073693,-0.191187,19.931252,-5.775,-56.118752
1782299779093,0.299103,1.115055,12.135103,0.228493,0.129281,-0.205848,19.931252,-5.775,-56.118752
1782299779099,0.299103,1.115055,12.135103,0.228493,0.129281,-0.205848,19.668751,-6.6375,-56.737503
1782299779101,0.299103,1.115055,12.135103,0.341503,0.172653,-0.224784,19.668751,-6.6375,-56.737503
1782299779102,0.399601,1.275374,11.824036,0.341503,0.172653,-0.224784,19.668751,-6.6375,-56.737503
1782299779109,0.399601,1.275374,11.824036,0.341503,0.172653,-0.224784,20.493752,-5.19375,-55.350002
1782299779110,0.399601,1.275374,11.824036,0.423359,0.195865,-0.246165,20.493752,-5.19375,-55.350002
1782299779111,0.502493,1.416551,11.450756,0.423359,0.195865,-0.246165,20.493752,-5.19375,-55.350002
1782299779120,0.591027,1.473979,11.091833,0.437409,0.179983,-0.268156,18.918751,-6.3375,-57.037502
1782299779127,0.600598,1.555335,10.878871,0.373879,0.126838,-0.291369,18.918751,-6.3375,-57.037502
1782299779128,0.600598,1.555335,10.878871,0.373879,0.126838,-0.291369,18.69375,-5.45625,-55.800003
1782299779136,0.595813,1.603191,10.888443,0.255371,0.069416,-0.310916,18.69375,-5.45625,-55.800003
1782299779138,0.595813,1.603191,10.888443,0.255371,0.069416,-0.310916,19.181252,-6.20625,-56.118752
1782299779144,0.595813,1.579263,10.986548,0.255371,0.069416,-0.310916,19.181252,-6.20625,-56.118752
1782299779145,0.595813,1.579263,10.986548,0.120981,0.029099,-0.325577,19.181252,-6.20625,-56.118752
1782299779149,0.595813,1.579263,10.986548,0.120981,0.029099,-0.325577,19.575001,-4.14375,-56.250004
1782299779156,0.650848,1.395016,11.015262,-0.003636,0.001,-0.337183,19.575001,-4.14375,-56.250004
1782299779158,0.650848,1.395016,11.015262,-0.003636,0.001,-0.337183,19.650002,-5.60625,-56.718754
1782299779161,0.698704,1.07677,11.05594,-0.11237,-0.026489,-0.348179,19.650002,-5.60625,-56.718754
1782299779168,0.698704,1.07677,11.05594,-0.11237,-0.026489,-0.348179,18.450001,-6.9375,-55.818752
1782299779170,0.746561,0.725025,11.177974,-0.203388,-0.056422,-0.351233,18.450001,-6.9375,-55.818752
1782299779179,0.784846,0.344566,11.393328,-0.274249,-0.078413,-0.354288,20.0625,-6.075,-55.500004
1782299779187,0.765703,0.028714,11.685253,-0.318231,-0.093684,-0.351844,20.0625,-6.075,-55.500004
1782299779188,0.765703,0.028714,11.685253,-0.318231,-0.093684,-0.351844,18.450001,-5.4375,-57.168751
1782299779196,0.739382,-0.129212,11.876678,-0.312733,-0.107734,-0.346957,18.450001,-5.4375,-57.168751
1782299779198,0.739382,-0.129212,11.876678,-0.312733,-0.107734,-0.346957,19.59375,-6.075,-54.900002
1782299779204,0.739382,-0.129212,11.876678,-0.240651,-0.1114,-0.340238,19.59375,-6.075,-54.900002
1782299779205,0.672383,-0.117248,11.917356,-0.240651,-0.1114,-0.340238,19.59375,-6.075,-54.900002
1782299779209,0.672383,-0.117248,11.917356,-0.240651,-0.1114,-0.340238,19.331251,-6.65625,-55.518753
1782299779213,0.672383,-0.117248,11.917356,-0.097709,-0.086965,-0.329242,19.331251,-6.65625,-55.518753
1782299779216,0.607777,-0.002393,11.687645,-0.097709,-0.086965,-0.329242,19.331251,-6.65625,-55.518753
1782299779219,0.607777,-0.002393,11.687645,-0.097709,-0.086965,-0.329242,20.175001,-3.7125,-56.100002
1782299779222,0.59342,0.119641,11.130118,0.071501,-0.036263,-0.314581,20.175001,-3.7125,-56.100002
1782299779228,0.59342,0.119641,11.130118,0.071501,-0.036263,-0.314581,18.375,-4.425,-56.100002
1782299779230,0.579063,0.318245,10.448164,0.202226,0.00833,-0.298699,18.375,-4.425,-56.100002
1782299779240,0.579063,0.318245,10.448164,0.252928,0.016882,-0.286482,18.375,-4.425,-56.100002
1782299779241,0.476172,0.569492,9.816458,0.252928,0.016882,-0.286482,16.9125,-5.1375,-56.868752
1782299779249,0.375673,0.765703,9.313965,0.216276,-0.00572,-0.269377,18.581251,-4.55625,-57.768753
1782299779256,0.380459,0.880559,9.127326,0.115483,-0.038707,-0.249219,18.581251,-4.55625,-57.768753
1782299779259,0.380459,0.880559,9.127326,0.115483,-0.038707,-0.249219,18.731251,-4.70625,-57.618752
1782299779269,0.39003,0.916451,9.223038,-0.00669,-0.047259,-0.233336,17.475,-4.55625,-56.250004
1782299779274,0.368495,0.832702,9.349858,-0.116035,-0.044204,-0.222341,17.475,-4.55625,-56.250004
1782299779279,0.368495,0.832702,9.349858,-0.116035,-0.044204,-0.222341,18.262501,-5.30625,-56.268753
1782299779282,0.454636,0.684347,9.435999,-0.195447,-0.04787,-0.216843,18.262501,-5.30625,-56.268753
1782299779288,0.454636,0.684347,9.435999,-0.195447,-0.04787,-0.216843,19.425001,-6.3375,-58.537502
1782299779290,0.545564,0.512064,9.562819,-0.243095,-0.052757,-0.211345,19.425001,-6.3375,-58.537502
1782299779299,0.545564,0.512064,9.562819,-0.263253,-0.046648,-0.208291,19.425001,-6.3375,-58.537502
1782299779300,0.634098,0.287139,9.787744,-0.263253,-0.046648,-0.208291,19.425001,-6.3375,-58.537502
1782299779301,0.634098,0.287139,9.787744,-0.263253,-0.046648,-0.208291,19.181252,-5.45625,-56.868752
1782299779309,0.684347,0.062213,9.957634,-0.254701,-0.022213,-0.208291,19.181252,-5.45625,-56.868752
1782299779310,0.684347,0.062213,9.957634,-0.254701,-0.022213,-0.208291,18.50625,-3.54375,-56.250004
1782299779316,0.698704,-0.098106,10.036598,-0.235153,-0.002055,-0.212567,18.50625,-3.54375,-56.250004
1782299779318,0.698704,-0.098106,10.036598,-0.235153,-0.002055,-0.212567,18.393751,-3.225,-57.600002
1782299779325,0.612563,-0.155533,10.053347,-0.203388,-0.009996,-0.218676,18.393751,-3.225,-57.600002
1782299779329,0.612563,-0.155533,10.053347,-0.203388,-0.009996,-0.218676,18.712502,-3.975,-57.618752
1782299779334,0.526421,-0.145962,10.043776,-0.167347,-0.029544,-0.222952,18.712502,-3.975,-57.618752
1782299779339,0.526421,-0.145962,10.043776,-0.167347,-0.029544,-0.222952,19.3125,-3.825,-57.468754
1782299779342,0.4666,-0.09332,9.900207,-0.131306,-0.029544,-0.226617,19.3125,-3.825,-57.468754
1782299779348,0.4666,-0.09332,9.900207,-0.131306,-0.029544,-0.226617,18.0,-5.1375,-57.937504
1782299779350,0.40678,-0.007178,9.63221,-0.102596,-0.014272,-0.223563,18.0,-5.1375,-57.937504
1782299779359,0.40678,-0.007178,9.63221,-0.083048,0.002832,-0.215011,18.0,-5.1375,-57.937504
1782299779360,0.339781,0.11007,9.297216,-0.083048,0.002832,-0.215011,17.4375,-3.525,-55.931252
1782299779370,0.282353,0.236889,9.024434,-0.073885,0.041317,-0.204626,17.925001,-3.675,-56.850002
1782299779376,0.18664,0.409173,8.756438,-0.061668,0.093851,-0.189965,17.925001,-3.675,-56.850002
1782299779379,0.18664,0.409173,8.756438,-0.061668,0.093851,-0.189965,19.425001,-3.69375,-56.400002
1782299779385,0.11007,0.535992,8.51237,-0.044564,0.165933,-0.171639,19.425001,-3.69375,-56.400002
1782299779389,0.11007,0.535992,8.51237,-0.044564,0.165933,-0.171639,18.1875,-2.79375,-56.231251
1782299779393,0.11007,0.535992,8.51237,-0.025016,0.243513,-0.14415,18.1875,-2.79375,-56.231251
1782299779394,0.021535,0.648455,8.246767,-0.025016,0.243513,-0.14415,18.1875,-2.79375,-56.231251
1782299779399,0.021535,0.648455,8.246767,-0.025016,0.243513,-0.14415,20.137501,-2.68125,-56.381252
1782299779402,0.062213,0.79681,7.983556,-0.006079,0.307043,-0.124603,20.137501,-2.68125,-56.381252
1782299779408,0.062213,0.79681,7.983556,-0.006079,0.307043,-0.124603,18.150002,-2.8125,-55.181252
1782299779411,-0.023928,0.806381,7.765809,3e-05,0.351636,-0.112996,18.150002,-2.8125,-55.181252
1782299779420,0.059821,0.885344,7.679668,-0.010355,0.338808,-0.112996,17.75625,-3.525,-56.250004
1782299779429,0.059821,0.885344,7.679668,-0.035401,0.273445,-0.120326,17.75625,-3.525,-56.250004
1782299779430,0.162712,1.002593,7.787344,-0.035401,0.273445,-0.120326,19.612501,-3.54375,-57.768753
1782299779437,0.155533,1.01695,7.964413,-0.068387,0.198309,-0.128879,19.612501,-3.54375,-57.768753
1782299779438,0.155533,1.01695,7.964413,-0.068387,0.198309,-0.128879,16.668751,-2.325,-56.681252
1782299779445,0.064606,1.0002,8.115161,-0.102596,0.124394,-0.143539,16.668751,-2.325,-56.681252
1782299779449,0.064606,1.0002,8.115161,-0.102596,0.124394,-0.143539,19.800001,-2.68125,-55.331253
1782299779454,0.028714,1.028914,8.189338,-0.127641,0.05048,-0.156368,19.800001,-2.68125,-55.331253
1782299779459,0.028714,1.028914,8.189338,-0.127641,0.05048,-0.156368,18.637501,-2.94375,-56.081253
1782299779462,0.050249,1.036092,8.304194,-0.134972,-0.008163,-0.156978,18.637501,-2.94375,-56.081253
1782299779468,0.050249,1.036092,8.304194,-0.134972,-0.008163,-0.156978,18.637501,-2.94375,-56.081253
1782299779478,0.088534,0.993021,8.440585,-0.124587,-0.024657,-0.149648,18.637501,-2.94375,-56.081253
1782299779479,0.088534,0.993021,8.440585,-0.109315,0.000389,-0.140485,18.637501,-2.94375,-56.081253
1782299779480,0.12682,0.947558,8.509977,-0.109315,0.000389,-0.140485,19.237501,-2.0625,-56.681252
1782299779489,0.119641,0.961915,8.574583,-0.090378,0.040095,-0.128268,19.200001,-1.63125,-56.231251
1782299779496,0.119641,0.961915,8.574583,-0.071442,0.092629,-0.113607,19.200001,-1.63125,-56.231251
1782299779497,0.119641,0.981057,8.708581,-0.071442,0.092629,-0.113607,19.200001,-1.63125,-56.231251
1782299779498,0.119641,0.981057,8.708581,-0.071442,0.092629,-0.113607,16.6875,-2.325,-57.450001
1782299779505,0.105284,0.978664,8.849758,-0.046396,0.148829,-0.097724,16.6875,-2.325,-57.450001
1782299779509,0.105284,0.978664,8.849758,-0.046396,0.148829,-0.097724,18.337502,-3.24375,-56.081253
1782299779513,0.105284,0.978664,8.849758,-0.015242,0.189757,-0.08062,18.337502,-3.24375,-56.081253
1782299779514,0.119641,0.947558,8.916757,-0.015242,0.189757,-0.08062,18.337502,-3.24375,-56.081253
1782299779519,0.119641,0.947558,8.916757,-0.015242,0.189757,-0.08062,17.90625,-2.64375,-57.150002
1782299779522,0.150748,0.933201,9.002899,0.017134,0.209915,-0.064738,17.90625,-2.64375,-57.150002
1782299779529,0.150748,0.933201,9.002899,0.017134,0.209915,-0.064738,18.300001,-2.2125,-55.781254
1782299779531,0.150748,0.935594,9.127326,0.044623,0.206861,-0.051299,18.300001,-2.2125,-55.781254
1782299779540,0.155533,0.98345,9.223038,0.070279,0.194033,-0.037249,17.400002,-2.34375,-56.231251
1782299779549,0.155533,0.98345,9.223038,0.094103,0.175707,-0.020145,17.400002,-2.34375,-56.231251
1782299779550,0.172283,1.024128,9.218253,0.094103,0.175707,-0.020145,17.38125,-1.6125,-55.912502
1782299779556,0.148355,1.083949,9.132111,0.108153,0.146385,-0.00243,17.38125,-1.6125,-55.912502
1782299779558,0.148355,1.083949,9.132111,0.108153,0.146385,-0.00243,17.887501,-2.64375,-56.850002
1782299779565,0.102891,1.11027,9.057933,0.111207,0.110344,0.017729,17.887501,-2.64375,-56.850002
1782299779577,0.035892,1.155733,9.069897,0.103877,0.080412,0.042774,19.050001,-1.48125,-56.381252
1782299779579,0.035892,1.155733,9.069897,0.103877,0.080412,0.042774,18.375,-2.64375,-57.600002
1782299779582,0.023928,1.17009,9.127326,0.091048,0.05048,0.070874,18.375,-2.64375,-57.600002
1782299779588,0.023928,1.17009,9.127326,0.091048,0.05048,0.070874,18.618752,-2.6625,-55.781254
1782299779591,0.014357,1.210768,9.201502,0.082496,0.021769,0.097752,18.618752,-2.6625,-55.781254
1782299779599,0.014357,1.210768,9.201502,0.090437,-0.009996,0.118522,18.618752,-2.6625,-55.781254
1782299779600,0.019143,1.284946,9.30918,0.090437,-0.009996,0.118522,17.85,-3.24375,-55.031254
1782299779609,0.045464,1.344766,9.34268,0.115483,-0.042372,0.135626,17.85,-3.24375,-55.031254
1782299779610,0.045464,1.344766,9.34268,0.115483,-0.042372,0.135626,16.800001,-2.925,-55.781254
1782299779617,0.071785,1.397408,9.313965,0.145415,-0.068028,0.148454,16.800001,-2.925,-55.781254
1782299779619,0.071785,1.397408,9.313965,0.145415,-0.068028,0.148454,17.606251,-1.89375,-57.900002
1782299779625,0.098106,1.447658,9.208681,0.168628,-0.094906,0.155174,17.606251,-1.89375,-57.900002
1782299779629,0.098106,1.447658,9.208681,0.168628,-0.094906,0.155174,18.243752,-3.825,-57.000004
1782299779633,0.098106,1.447658,9.208681,0.170461,-0.123006,0.154563,18.243752,-3.825,-57.000004
1782299779634,0.117248,1.507478,9.163217,0.170461,-0.123006,0.154563,18.243752,-3.825,-57.000004
1782299779639,0.117248,1.507478,9.163217,0.170461,-0.123006,0.154563,17.887501,-3.24375,-56.081253
1782299779642,0.117248,1.596013,9.21586,0.151524,-0.159047,0.150287,17.887501,-3.24375,-56.081253
1782299779648,0.117248,1.596013,9.21586,0.151524,-0.159047,0.150287,19.368752,-5.30625,-57.768753
1782299779651,0.114855,1.65344,9.390536,0.122813,-0.195088,0.143567,19.368752,-5.30625,-57.768753
1782299779658,0.114855,1.65344,9.390536,0.122813,-0.195088,0.143567,17.85,-2.6625,-55.331253
1782299779659,0.114855,1.65344,9.390536,0.093492,-0.218301,0.135015,17.85,-2.6625,-55.331253
1782299779660,0.16989,1.648655,9.615461,0.093492,-0.218301,0.135015,17.85,-2.6625,-55.331253
1782299779669,0.16989,1.648655,9.615461,0.071501,-0.228686,0.125852,17.85,-2.6625,-55.331253
1782299779670,0.299103,1.59362,9.849958,0.071501,-0.228686,0.125852,17.475,-3.80625,-57.000004
1782299779676,0.299103,1.59362,9.849958,0.056229,-0.223188,0.116689,17.475,-3.80625,-57.000004
1782299779677,0.370888,1.51705,10.060525,0.056229,-0.223188,0.116689,17.475,-3.80625,-57.000004
1782299779685,0.485743,1.435694,10.27588,0.055618,-0.209749,0.107526,16.96875,-3.075,-55.931252
1782299779689,0.485743,1.435694,10.27588,0.055618,-0.209749,0.107526,19.5,-5.45625,-56.868752
1782299779694,0.485743,1.435694,10.27588,0.062949,-0.185925,0.097141,19.5,-5.45625,-56.868752
1782299779700,0.521635,1.335195,10.527126,0.062949,-0.185925,0.097141,19.5,-5.45625,-56.868752
1782299779701,0.521635,1.335195,10.527126,0.062949,-0.185925,0.097141,16.837502,-3.95625,-55.800003
1782299779703,0.583849,1.162912,10.778372,0.077609,-0.165156,0.088589,16.837502,-3.95625,-55.800003
1782299779709,0.583849,1.162912,10.778372,0.077609,-0.165156,0.088589,18.393751,-3.975,-56.850002
1782299779711,0.715454,1.019342,11.034404,0.093492,-0.149273,0.076983,18.393751,-3.975,-56.850002
1782299779719,0.715454,1.019342,11.034404,0.093492,-0.149273,0.076983,15.187501,-2.75625,-57.450001
1782299779720,0.753739,0.947558,11.31915,0.113039,-0.133391,0.062322,15.187501,-2.75625,-57.450001
1782299779730,0.698704,0.961915,11.579968,0.142972,-0.123006,0.048272,17.15625,-1.875,-58.350002
1782299779737,0.600598,1.081556,11.718752,0.187565,-0.110789,0.040942,17.15625,-1.875,-58.350002
1782299779738,0.600598,1.081556,11.718752,0.187565,-0.110789,0.040942,17.90625,-2.94375,-56.850002
1782299779746,0.569492,1.289731,11.661324,0.244375,-0.091241,0.040942,17.90625,-2.94375,-56.850002
1782299779749,0.569492,1.289731,11.661324,0.244375,-0.091241,0.040942,16.59375,-3.9375,-57.618752
1782299779754,0.586242,1.414158,11.510577,0.299964,-0.042372,0.050105,16.59375,-3.9375,-57.618752
1782299779759,0.586242,1.414158,11.510577,0.299964,-0.042372,0.050105,15.937501,-4.10625,-55.950001
1782299779762,0.586242,1.414158,11.510577,0.332951,0.035819,0.067209,15.937501,-4.10625,-55.950001
1782299779763,0.540778,1.497907,11.378972,0.332951,0.035819,0.067209,15.937501,-4.10625,-55.950001
1782299779769,0.540778,1.497907,11.378972,0.332951,0.035819,0.067209,16.78125,-5.26875,-57.468754
1782299779771,0.27996,1.57687,11.295223,0.32501,0.117064,0.095309,16.78125,-5.26875,-57.468754
1782299779785,-0.0335,1.720439,11.25933,0.273086,0.168987,0.136237,16.875,-5.1375,-55.800003
1782299779789,-0.0335,1.720439,11.25933,0.198561,0.195865,0.183884,16.875,-5.1375,-55.800003
1782299779790,-0.287139,1.820938,11.350257,0.198561,0.195865,0.183884,16.237501,-3.80625,-56.250004
1782299779797,-0.404387,1.773082,11.436399,0.125868,0.201363,0.227256,16.237501,-3.80625,-56.250004
1782299779798,-0.404387,1.773082,11.436399,0.125868,0.201363,0.227256,15.543751,-4.51875,-57.018753
1782299779805,-0.404387,1.773082,11.436399,0.055618,0.190368,0.264518,15.543751,-4.51875,-57.018753
1782299779806,-0.435494,1.584049,11.436399,0.055618,0.190368,0.264518,15.543751,-4.51875,-57.018753
1782299779808,-0.435494,1.584049,11.436399,0.055618,0.190368,0.264518,15.843751,-4.66875,-57.168751
1782299779814,-0.445065,1.347159,11.424435,-0.026238,0.162268,0.293229,15.843751,-4.66875,-57.168751
1782299779819,-0.445065,1.347159,11.424435,-0.026238,0.162268,0.293229,16.200001,-5.11875,-57.937504
1782299779822,-0.490529,0.990629,11.486648,-0.12642,0.108512,0.311555,16.200001,-5.11875,-57.937504
1782299779829,-0.490529,0.990629,11.486648,-0.12642,0.108512,0.311555,16.181252,-5.41875,-57.168751
1782299779831,-0.490529,0.631705,11.702002,-0.233321,0.032154,0.317664,16.181252,-5.41875,-57.168751
1782299779838,-0.490529,0.631705,11.702002,-0.233321,0.032154,0.317664,16.181252,-5.41875,-57.168751
1782299779839,-0.490529,0.631705,11.702002,-0.317009,-0.057033,0.309722,16.181252,-5.41875,-57.168751
1782299779840,-0.418744,0.303888,11.981963,-0.317009,-0.057033,0.309722,16.181252,-5.41875,-57.168751
1782299779850,-0.332602,0.050249,12.178174,-0.351218,-0.149884,0.292007,17.512501,-4.55625,-57.018753
1782299779857,-0.253639,-0.133998,12.139889,-0.325561,-0.239681,0.271849,17.512501,-4.55625,-57.018753
1782299779859,-0.253639,-0.133998,12.139889,-0.325561,-0.239681,0.271849,16.275002,-5.2875,-55.950001
1782299779865,-0.253639,-0.133998,12.139889,-0.247371,-0.3026,0.252301,16.275002,-5.2875,-55.950001
1782299779866,-0.165105,-0.191426,11.960427,-0.247371,-0.3026,0.252301,16.275002,-5.2875,-55.950001
1782299779869,-0.165105,-0.191426,11.960427,-0.247371,-0.3026,0.252301,16.21875,-5.1,-58.987503
1782299779874,-0.165105,-0.191426,11.960427,-0.135582,-0.329478,0.235808,16.21875,-5.1,-58.987503
1782299779875,-0.100499,-0.167498,11.579968,-0.135582,-0.329478,0.235808,16.21875,-5.1,-58.987503
1782299779885,-0.11007,-0.009571,11.020048,-0.016464,-0.322148,0.22298,16.1625,-4.3875,-57.618752
1782299779888,-0.11007,-0.009571,11.020048,-0.016464,-0.322148,0.22298,15.093751,-4.36875,-57.618752
1782299779891,-0.11007,0.267996,10.311772,0.086161,-0.281831,0.218703,15.093751,-4.36875,-57.618752
1782299779898,-0.11007,0.267996,10.311772,0.086161,-0.281831,0.218703,15.31875,-5.25,-58.837502
1782299779900,-0.071785,0.57667,9.63221,0.155189,-0.22441,0.22359,15.31875,-5.25,-58.837502
1782299779910,-0.083749,0.882952,9.144075,0.190619,-0.164545,0.232753,15.562501,-5.26875,-57.018753
1782299779917,-0.040678,1.117448,8.722938,0.196117,-0.104069,0.238251,15.562501,-5.26875,-57.018753
1782299779919,-0.040678,1.117448,8.722938,0.196117,-0.104069,0.238251,14.6625,-3.91875,-58.368752
1782299779925,-0.040678,1.117448,8.722938,0.161298,-0.047259,0.242527,14.6625,-3.91875,-58.368752
1782299779926,-0.011964,1.241875,8.428621,0.161298,-0.047259,0.242527,14.6625,-3.91875,-58.368752
1782299779929,-0.011964,1.241875,8.428621,0.161298,-0.047259,0.242527,15.093751,-4.36875,-57.618752
1782299779934,0.019143,1.311267,8.318551,0.087994,-0.005109,0.244971,15.093751,-4.36875,-57.618752
1782299779939,0.019143,1.311267,8.318551,0.087994,-0.005109,0.244971,15.58125,-6.0,-57.018753
1782299779943,-0.031107,1.251446,8.373586,-0.009133,0.010773,0.236419,15.58125,-6.0,-57.018753
1782299779948,-0.031107,1.251446,8.373586,-0.009133,0.010773,0.236419,15.58125,-6.0,-57.018753
1782299779951,-0.035892,1.11027,8.469299,-0.111759,-0.006331,0.220536,15.58125,-6.0,-57.018753
1782299779959,-0.035892,1.11027,8.469299,-0.111759,-0.006331,0.220536,15.262501,-4.51875,-58.068752
1782299779960,-0.040678,0.681954,8.916757,-0.207054,-0.038096,0.205264,15.262501,-4.51875,-58.068752
1782299779971,-0.12682,0.602991,9.091433,-0.26814,-0.054589,0.193047,15.01875,-5.25,-58.837502
1782299779977,-0.212961,0.425922,9.232609,-0.279136,-0.06253,0.179608,15.01875,-5.25,-58.837502
1782299779984,-0.212961,0.425922,9.232609,-0.279136,-0.06253,0.179608,15.0375,-5.23125,-59.287502
1782299779986,-0.138784,0.325424,9.201502,-0.257755,-0.051535,0.171667,15.0375,-5.23125,-59.287502
1782299779989,-0.138784,0.325424,9.201502,-0.257755,-0.051535,0.171667,15.1125,-3.91875,-58.668751
1782299779995,-0.062213,0.227318,9.160824,-0.228434,-0.027711,0.15945,15.1125,-3.91875,-58.668751
1782299780000,-0.062213,0.227318,9.160824,-0.228434,-0.027711,0.15945,13.687501,-5.0625,-59.756252
1782299780004,-0.0335,0.217747,9.101004,-0.202167,0.009552,0.15945,13.687501,-5.0625,-59.756252
1782299780008,-0.0335,0.217747,9.101004,-0.202167,0.009552,0.15945,13.63125,-4.63125,-58.387501
1782299780012,0.01675,0.256032,9.048362,-0.185063,0.048036,0.166169,13.63125,-4.63125,-58.387501
1782299780019,0.01675,0.256032,9.048362,-0.185063,0.048036,0.166169,14.531251,-5.25,-57.787502
1782299780020,0.059821,0.299103,8.964613,-0.170402,0.06514,0.171667,14.531251,-5.25,-57.787502
1782299780029,0.043071,0.308674,8.959828,-0.153908,0.071249,0.173499,14.512501,-4.8,-57.468754
1782299780037,0.035892,0.334995,8.904792,-0.133139,0.073693,0.172278,14.512501,-4.8,-57.468754
1782299780038,0.035892,0.334995,8.904792,-0.133139,0.073693,0.172278,15.562501,-5.26875,-57.018753
1782299780045,0.035892,0.334995,8.904792,-0.104428,0.055977,0.162504,15.562501,-5.26875,-57.018753
1782299780046,0.045464,0.366102,8.830616,-0.104428,0.055977,0.162504,15.562501,-5.26875,-57.018753
1782299780048,0.045464,0.366102,8.830616,-0.104428,0.055977,0.162504,15.075001,-4.36875,-56.868752
1782299780057,0.038285,0.425922,8.730116,-0.076329,0.013828,0.146621,15.075001,-4.36875,-56.868752
1782299780060,0.038285,0.425922,8.730116,-0.076329,0.013828,0.146621,14.325001,-4.36875,-57.168751
1782299780063,0.011964,0.5001,8.526726,-0.062279,-0.045426,0.128295,14.325001,-4.36875,-57.168751
1782299780069,0.011964,0.5001,8.526726,-0.062279,-0.045426,0.128295,15.01875,-4.8,-59.587502
1782299780071,0.011964,0.5001,8.526726,-0.07022,-0.110178,0.114246,15.01875,-4.8,-59.587502
1782299780072,0.019143,0.591027,8.265909,-0.07022,-0.110178,0.114246,15.01875,-4.8,-59.587502
1782299780078,0.019143,0.591027,8.265909,-0.07022,-0.110178,0.114246,13.593751,-4.35,-57.918751
1782299780080,0.011964,0.691526,8.052948,-0.094655,-0.160269,0.104472,13.593751,-4.35,-57.918751
1782299780092,-0.028714,0.741775,7.997913,-0.120922,-0.181649,0.100807,14.64375,-3.91875,-57.918751
1782299780097,-0.031107,0.777667,8.019448,-0.141691,-0.157214,0.102639,14.64375,-3.91875,-57.918751
1782299780098,-0.031107,0.777667,8.019448,-0.141691,-0.157214,0.102639,13.8,-4.05,-59.587502
1782299780106,-0.002393,0.839881,8.096018,-0.144135,-0.108956,0.100807,13.8,-4.05,-59.587502
1782299780109,-0.002393,0.839881,8.096018,-0.144135,-0.108956,0.100807,13.481251,-5.23125,-58.087502
1782299780114,-0.002393,0.839881,8.096018,-0.125809,-0.061919,0.097141,13.481251,-5.23125,-58.087502
1782299780115,0.011964,0.880559,8.174982,-0.125809,-0.061919,0.097141,13.481251,-5.23125,-58.087502
1782299780120,0.011964,0.880559,8.174982,-0.125809,-0.061919,0.097141,14.38125,-4.35,-58.987503
1782299780123,0.083749,0.899701,8.244374,-0.098931,-0.020992,0.093476,14.38125,-4.35,-58.987503
1782299780130,0.083749,0.899701,8.244374,-0.098931,-0.020992,0.093476,13.743751,-4.5,-57.468754
1782299780131,0.083749,0.899701,8.244374,-0.081826,0.007719,0.082481,13.743751,-4.5,-57.468754
1782299780132,0.198604,0.882952,8.337694,-0.081826,0.007719,0.082481,13.743751,-4.5,-57.468754
1782299780138,0.198604,0.882952,8.337694,-0.081826,0.007719,0.082481,14.418751,-4.35,-59.737503
1782299780140,0.239282,0.880559,8.509977,-0.082437,0.009552,0.062933,14.418751,-4.35,-59.737503
1782299780150,0.248854,0.909273,8.713367,-0.0916,-0.017937,0.042164,13.462501,-4.05,-58.518753
1782299780157,0.248854,0.909273,8.713367,-0.099541,-0.071082,0.017118,13.462501,-4.05,-58.518753
1782299780158,0.275175,0.930808,8.943078,-0.099541,-0.071082,0.017118,13.462501,-3.75,-58.818752
1782299780166,0.315853,0.918844,9.098611,-0.100763,-0.134612,-0.005484,13.462501,-3.75,-58.818752
1782299780170,0.315853,0.918844,9.098611,-0.100763,-0.134612,-0.005484,13.5375,-5.5125,-59.306252
1782299780175,0.375673,0.911665,9.156039,-0.097709,-0.190201,-0.026864,13.5375,-5.5125,-59.306252
1782299780179,0.375673,0.911665,9.156039,-0.097709,-0.190201,-0.026864,11.325001,-3.58125,-58.368752
1782299780183,0.375673,0.911665,9.156039,-0.090378,-0.214636,-0.044579,11.325001,-3.58125,-58.368752
1782299780184,0.435494,0.894916,9.179967,-0.090378,-0.214636,-0.044579,11.325001,-3.58125,-58.368752
1782299780194,0.461815,0.882952,9.144075,-0.076939,-0.202418,-0.062294,13.81875,-5.23125,-59.287502
1782299780198,0.461815,0.882952,9.144075,-0.076939,-0.202418,-0.062294,12.468751,-4.7625,-60.056252
1782299780200,0.234497,0.897308,9.065112,-0.062279,-0.166377,-0.07329,12.468751,-4.7625,-60.056252
1782299780209,0.234497,0.897308,9.065112,-0.048229,-0.134002,-0.075733,12.468751,-4.7625,-60.056252
1782299780210,0.124427,0.952343,9.031612,-0.048229,-0.134002,-0.075733,11.8125,-3.58125,-59.737503
1782299780217,0.114855,0.978664,9.168003,-0.03479,-0.094295,-0.08062,11.8125,-3.58125,-59.737503
1782299780221,0.114855,0.978664,9.168003,-0.03479,-0.094295,-0.08062,12.543751,-3.88125,-58.368752
1782299780226,0.16989,1.014557,9.428821,0.001251,-0.042372,-0.084285,12.543751,-3.88125,-58.368752
1782299780229,0.16989,1.014557,9.428821,0.001251,-0.042372,-0.084285,11.94375,-3.43125,-59.287502
1782299780234,0.16989,1.014557,9.428821,0.072112,0.027878,-0.084896,11.94375,-3.43125,-59.287502
1782299780235,0.179462,1.172483,9.615461,0.072112,0.027878,-0.084896,11.94375,-3.43125,-59.287502
1782299780239,0.179462,1.172483,9.615461,0.072112,0.027878,-0.084896,11.981251,-3.7125,-60.037502
1782299780243,0.179462,1.172483,9.615461,0.157633,0.101792,-0.083064,11.981251,-3.7125,-60.037502
1782299780244,0.138784,1.304088,9.593925,0.157633,0.101792,-0.083064,11.981251,-3.7125,-60.037502
1782299780249,0.138784,1.304088,9.593925,0.157633,0.101792,-0.083064,11.775001,-3.13125,-58.968754
1782299780251,0.138784,1.304088,9.593925,0.225439,0.132946,-0.086118,11.775001,-3.13125,-58.968754
1782299780252,0.102891,1.361516,9.459927,0.225439,0.132946,-0.086118,11.775001,-3.13125,-58.968754
1782299780259,0.102891,1.361516,9.459927,0.225439,0.132946,-0.086118,12.95625,-6.09375,-59.756252
1782299780261,0.011964,1.39023,9.44557,0.254149,0.125005,-0.096503,12.95625,-6.09375,-59.756252
1782299780270,-0.081356,1.421337,9.546069,0.244375,0.095684,-0.106277,11.8125,-4.3125,-58.987503
1782299780278,-0.129212,1.4668,9.708781,0.207113,0.060253,-0.116661,11.8125,-4.3125,-58.987503
1782299780279,-0.129212,1.4668,9.708781,0.207113,0.060253,-0.116661,12.806251,-5.94375,-59.606251
1782299780286,-0.124427,1.459622,9.904993,0.161298,0.024212,-0.127046,12.806251,-5.94375,-59.606251
1782299780289,-0.124427,1.459622,9.904993,0.161298,0.024212,-0.127046,12.8625,-3.88125,-58.668751
1782299780302,-0.019143,1.383052,10.141881,0.116094,-0.004498,-0.132544,12.95625,-5.0625,-60.506252
1782299780303,-0.019143,1.383052,10.141881,0.080664,-0.002666,-0.139874,12.95625,-5.0625,-60.506252
1782299780304,0.052642,1.301695,10.452949,0.080664,-0.002666,-0.139874,12.95625,-5.0625,-60.506252
1782299780309,0.052642,1.301695,10.452949,0.080664,-0.002666,-0.139874,12.13125,-3.88125,-59.737503
1782299780312,0.100499,1.246661,10.768801,0.065392,0.004665,-0.147815,12.13125,-3.88125,-59.737503
1782299780319,0.100499,1.246661,10.768801,0.065392,0.004665,-0.147815,13.031251,-5.23125,-58.087502
1782299780321,0.157926,1.160519,10.969799,0.066614,0.027878,-0.153313,13.031251,-5.23125,-58.087502
1782299780329,0.157926,1.160519,10.969799,0.071501,0.066362,-0.159422,13.031251,-5.23125,-58.087502
1782299780330,0.265603,1.021735,11.154046,0.071501,0.066362,-0.159422,12.7875,-5.94375,-59.306252
1782299780338,0.342174,0.856631,11.376579,0.073333,0.105457,-0.170417,12.7875,-5.94375,-59.306252
1782299780339,0.342174,0.856631,11.376579,0.073333,0.105457,-0.170417,13.087501,-5.5125,-59.606251
1782299780346,0.37328,0.799203,11.58954,0.078831,0.137833,-0.184467,13.087501,-5.5125,-59.606251
1782299780348,0.37328,0.799203,11.58954,0.078831,0.137833,-0.184467,12.7875,-4.4625,-60.656254
1782299780355,0.368495,0.825524,11.685253,0.091048,0.161046,-0.193019,12.7875,-4.4625,-60.656254
1782299780359,0.368495,0.825524,11.685253,0.091048,0.161046,-0.193019,12.187501,-5.34375,-59.756252
1782299780363,0.303888,0.868595,11.699609,0.114261,0.181205,-0.194852,12.187501,-5.34375,-59.756252
1782299780369,0.303888,0.868595,11.699609,0.114261,0.181205,-0.194852,13.856251,-5.2125,-60.356251
1782299780372,0.22014,0.942772,11.601504,0.150302,0.207472,-0.189965,13.856251,-5.2125,-60.356251
1782299780378,0.22014,0.942772,11.601504,0.150302,0.207472,-0.189965,11.85,-5.04375,-59.456253
1782299780380,0.157926,1.024128,11.378972,0.185732,0.247178,-0.182024,11.85,-5.04375,-59.456253
1782299780389,0.157926,1.024128,11.378972,0.196117,0.278943,-0.175304,11.85,-5.04375,-59.456253
1782299780390,0.083749,1.055235,11.14926,0.196117,0.278943,-0.175304,13.725,-6.39375,-59.756252
1782299780401,0.083749,1.055235,11.14926,0.16313,0.277721,-0.175304,13.725,-6.39375,-59.756252
1782299780402,-0.021535,1.158126,10.957835,0.16313,0.277721,-0.175304,14.418751,-5.68125,-58.387501
1782299780407,-0.131605,1.249053,10.914764,0.083718,0.251454,-0.183246,14.418751,-5.68125,-58.387501
1782299780409,-0.131605,1.249053,10.914764,0.083718,0.251454,-0.183246,12.056251,-4.74375,-61.106251
1782299780415,-0.136391,1.284946,10.955442,-0.022572,0.216635,-0.19363,12.056251,-4.74375,-61.106251
1782299780420,-0.136391,1.284946,10.955442,-0.022572,0.216635,-0.19363,12.056251,-4.74375,-61.106251
1782299780423,-0.136391,1.284946,10.955442,-0.136193,0.186092,-0.211345,12.056251,-4.74375,-61.106251
1782299780424,-0.088534,1.189233,11.029619,-0.136193,0.186092,-0.211345,12.056251,-4.74375,-61.106251
1782299780429,-0.088534,1.189233,11.029619,-0.136193,0.186092,-0.211345,14.2875,-5.53125,-59.306252
1782299780432,-0.035892,0.961915,11.161224,-0.247982,0.157381,-0.237613,14.2875,-5.53125,-59.306252
1782299780439,-0.035892,0.961915,11.161224,-0.247982,0.157381,-0.237613,13.125001,-4.4625,-61.875004
1782299780440,-0.098106,0.696311,11.431613,-0.352439,0.128059,-0.263269,13.125001,-4.4625,-61.875004
1782299780450,0.196211,0.325424,11.651753,-0.427576,0.084688,-0.28526,14.587501,-5.53125,-59.306252
1782299780459,0.387637,-0.045464,11.993927,-0.470336,0.026045,-0.298699,15.093751,-5.9625,-60.675003
1782299780467,0.595813,-0.378066,12.223637,-0.471558,-0.017326,-0.307862,15.093751,-5.9625,-60.675003
1782299780469,0.595813,-0.378066,12.223637,-0.471558,-0.017326,-0.307862,15.375001,-4.48125,-61.406254
1782299780475,0.634098,-0.490529,12.245173,-0.417191,-0.035652,-0.307251,15.375001,-4.48125,-61.406254
1782299780480,0.634098,-0.490529,12.245173,-0.417191,-0.035652,-0.307251,13.63125,-4.33125,-58.987503
1782299780484,0.646062,-0.351745,11.96282,-0.28952,-0.017326,-0.287093,13.63125,-4.33125,-58.987503
1782299780489,0.646062,-0.351745,11.96282,-0.28952,-0.017326,-0.287093,14.437501,-3.6,-61.256252
1782299780492,0.638884,-0.181855,11.347865,-0.109315,0.024212,-0.255328,14.437501,-3.6,-61.256252
1782299780501,0.638884,-0.181855,11.347865,-0.109315,0.024212,-0.255328,15.000001,-4.05,-59.587502
1782299780502,0.660419,0.074178,10.517555,0.073944,0.076136,-0.218065,15.000001,-4.05,-59.587502
1782299780509,0.660419,0.074178,10.517555,0.073944,0.076136,-0.218065,14.3625,-3.9,-58.668751
1782299780510,0.579063,0.370888,9.670496,0.204058,0.127449,-0.184467,14.3625,-3.9,-58.668751
1782299780519,0.459422,0.665205,9.050755,0.251095,0.171431,-0.152702,12.450001,-4.4625,-59.587502
1782299780526,0.339781,0.902094,8.667903,0.213832,0.196476,-0.125824,12.450001,-4.4625,-59.587502
1782299780528,0.339781,0.902094,8.667903,0.213832,0.196476,-0.125824,13.668751,-4.63125,-59.737503
1782299780535,0.332602,1.067199,8.584155,0.108763,0.185481,-0.106277,13.668751,-4.63125,-59.737503
1782299780539,0.332602,1.067199,8.584155,0.108763,0.185481,-0.106277,13.668751,-5.08125,-59.437504
1782299780544,0.342174,1.124627,8.675082,-0.031735,0.161657,-0.098946,13.668751,-5.08125,-59.437504
1782299780549,0.342174,1.124627,8.675082,-0.031735,0.161657,-0.098946,14.45625,-4.33125,-60.956253
1782299780552,0.342174,1.124627,8.675082,-0.159406,0.142109,-0.103222,14.45625,-4.33125,-60.956253
1782299780553,0.342174,1.004985,8.916757,-0.159406,0.142109,-0.103222,14.45625,-4.33125,-60.956253
1782299780558,0.342174,1.004985,8.916757,-0.159406,0.142109,-0.103222,15.975,-5.68125,-60.206253
1782299780561,0.337388,0.830309,9.268502,-0.245538,0.138444,-0.11605,15.975,-5.68125,-60.206253
1782299780570,0.260818,0.555135,9.601104,-0.278525,0.152494,-0.139874,14.718751,-5.08125,-58.987503
1782299780579,0.208176,0.299103,9.754244,-0.266308,0.168987,-0.167363,14.26875,-3.75,-60.337502
1782299780586,0.208176,0.299103,9.754244,-0.221104,0.154327,-0.194241,14.26875,-3.75,-60.337502
1782299780587,0.179462,0.052642,9.790137,-0.221104,0.154327,-0.194241,14.26875,-3.75,-60.337502
1782299780588,0.179462,0.052642,9.790137,-0.221104,0.154327,-0.194241,14.437501,-4.63125,-60.206253
1782299780595,0.229711,-0.057428,9.828422,-0.156963,0.148218,-0.224784,14.437501,-4.63125,-60.206253
1782299780600,0.229711,-0.057428,9.828422,-0.156963,0.148218,-0.224784,14.306251,-4.48125,-61.106251
1782299780611,0.366102,-0.083749,9.790137,-0.086713,0.146996,-0.251052,13.51875,-3.43125,-61.106251
1782299780612,0.421137,-0.165105,9.636997,-0.025016,0.130503,-0.276097,13.51875,-3.43125,-61.106251
1782299780619,0.421137,-0.165105,9.636997,-0.025016,0.130503,-0.276097,15.31875,-3.76875,-60.037502
1782299780621,0.380459,-0.236889,9.457534,-0.003636,0.108512,-0.29931,15.31875,-3.76875,-60.037502
1782299780630,0.39003,-0.229711,9.318751,-0.018907,0.060864,-0.319468,14.45625,-3.15,-62.306252
1782299780639,0.399601,-0.153141,9.323536,-0.062279,0.016271,-0.333518,14.118751,-3.15,-60.937504
1782299780646,0.368495,-0.074178,9.297216,-0.115424,-0.014272,-0.339016,14.118751,-3.15,-60.937504
1782299780648,0.368495,-0.074178,9.297216,-0.115424,-0.014272,-0.339016,14.26875,-3.45,-60.637501
1782299780655,0.363709,0.019143,9.211073,-0.152687,-0.046648,-0.335962,14.26875,-3.45,-60.637501
1782299780659,0.363709,0.019143,9.211073,-0.152687,-0.046648,-0.335962,15.337501,-3.75,-60.656254
1782299780663,0.363709,0.019143,9.211073,-0.154519,-0.058865,-0.325577,15.337501,-3.75,-60.656254
1782299780664,0.361316,0.122034,9.053148,-0.154519,-0.058865,-0.325577,15.337501,-3.75,-60.656254
1782299780669,0.361316,0.122034,9.053148,-0.154519,-0.058865,-0.325577,13.837501,-3.43125,-61.406254
1782299780672,0.339781,0.193819,8.904792,-0.122143,-0.026489,-0.308473,13.837501,-3.43125,-61.406254
1782299780678,0.339781,0.193819,8.904792,-0.122143,-0.026489,-0.308473,13.8,-4.05,-59.587502
1782299780681,0.27996,0.267996,8.672689,-0.061668,0.021158,-0.287093,13.8,-4.05,-59.587502
1782299780689,0.27996,0.267996,8.672689,0.011025,0.045593,-0.264491,13.8,-4.05,-59.587502
1782299780690,0.222533,0.473779,8.330515,0.011025,0.045593,-0.264491,16.387501,-4.06875,-60.037502
1782299780710,0.035892,0.70349,7.947663,0.075166,0.056588,-0.240667,14.45625,-3.88125,-61.256252
1782299780715,-0.07657,0.818345,7.842379,0.139918,0.103625,-0.193019,14.45625,-3.88125,-61.256252
1782299780723,-0.165105,0.954736,7.753845,0.133809,0.087132,-0.177748,14.118751,-4.63125,-59.737503
1782299780729,-0.165105,0.954736,7.753845,0.133809,0.087132,-0.177748,15.13125,-1.8375,-61.237503
1782299780732,-0.229711,1.031307,7.703596,0.091048,0.062697,-0.16553,15.13125,-1.8375,-61.237503
1782299780739,-0.229711,1.031307,7.703596,0.091048,0.062697,-0.16553,14.606251,-4.78125,-60.656254
1782299780741,-0.265603,1.062413,7.782559,0.02141,0.035208,-0.153924,14.606251,-4.78125,-60.656254
1782299780750,-0.29671,1.107877,7.940485,-0.053116,-0.00572,-0.142928,15.262501,-2.7375,-59.568752
1782299780759,-0.277567,1.160519,8.184553,-0.104428,-0.042983,-0.127657,15.262501,-2.7375,-59.568752
1782299780760,-0.277567,1.160519,8.184553,-0.104428,-0.042983,-0.127657,15.150001,-3.91875,-59.737503
1782299780767,-0.258425,1.134198,8.421443,-0.125809,-0.044204,-0.109331,15.150001,-3.91875,-59.737503
1782299780769,-0.258425,1.134198,8.421443,-0.125809,-0.044204,-0.109331,15.356251,-4.05,-61.106251
1782299780775,-0.200997,1.179662,8.57219,-0.120922,-0.013661,-0.084896,15.356251,-4.05,-61.106251
1782299780779,-0.200997,1.179662,8.57219,-0.120922,-0.013661,-0.084896,12.8625,-3.15,-59.737503
1782299780784,-0.205783,1.208375,8.57219,-0.105039,0.025434,-0.059851,12.8625,-3.15,-59.737503
1782299780789,-0.205783,1.208375,8.57219,-0.105039,0.025434,-0.059851,13.33125,-2.55,-60.487503
1782299780792,-0.315853,1.158126,8.550655,-0.093433,0.024823,-0.038471,13.33125,-2.55,-60.487503
1782299780798,-0.315853,1.158126,8.550655,-0.093433,0.024823,-0.038471,15.000001,-3.01875,-60.337502
1782299780803,-0.397209,1.129412,8.663118,-0.08427,-0.008163,-0.020756,15.000001,-3.01875,-60.337502
1782299780811,-0.404387,1.067199,8.876079,-0.079383,-0.04848,-0.009149,14.437501,-4.33125,-60.206253
1782299780829,-0.184247,0.878166,9.14886,-0.103207,-0.093074,0.000625,15.150001,-3.16875,-60.487503
1782299780836,-0.131605,0.81356,9.244573,-0.1197,-0.108956,1.4e-05,15.150001,-3.16875,-60.487503
1782299780839,-0.131605,0.81356,9.244573,-0.1197,-0.108956,1.4e-05,15.13125,-1.8375,-61.237503
1782299780844,-0.066999,0.837488,9.407285,-0.12642,-0.132169,0.001846,15.13125,-1.8375,-61.237503
1782299780850,-0.066999,0.837488,9.407285,-0.12642,-0.132169,0.001846,14.08125,-2.85,-60.487503
1782299780852,0.01675,0.928415,9.569997,-0.111759,-0.152327,0.004901,14.08125,-2.85,-60.487503
1782299780859,0.01675,0.928415,9.569997,-0.111759,-0.152327,0.004901,16.106251,-3.01875,-61.856251
1782299780861,0.119641,1.031307,9.687246,-0.069609,-0.155382,0.010399,16.106251,-3.01875,-61.856251
1782299780869,0.119641,1.031307,9.687246,-0.069609,-0.155382,0.010399,13.81875,-2.7,-61.387501
1782299780870,0.179462,1.107877,9.804493,-0.000581,-0.145608,0.015896,13.81875,-2.7,-61.387501
1782299780879,0.232104,1.146162,9.744673,0.082496,-0.147441,0.020172,13.81875,-2.7,-61.387501
1782299780880,0.232104,1.146162,9.744673,0.082496,-0.147441,0.020172,12.918751,-2.83125,-61.556252
1782299780887,0.224925,1.194018,9.660924,0.153357,-0.151717,0.022616,12.918751,-2.83125,-61.556252
1782299780888,0.224925,1.194018,9.660924,0.153357,-0.151717,0.022616,12.918751,-2.83125,-61.556252
1782299780895,0.224925,1.194018,9.660924,0.187565,-0.148051,0.026892,12.918751,-2.83125,-61.556252
1782299780896,0.258425,1.189233,9.708781,0.187565,-0.148051,0.026892,12.918751,-2.83125,-61.556252
1782299780898,0.258425,1.189233,9.708781,0.187565,-0.148051,0.026892,13.762501,-2.71875,-59.568752
1782299780904,0.172283,1.344766,9.900207,0.180845,-0.162712,0.029946,13.762501,-2.71875,-59.568752
1782299780909,0.172283,1.344766,9.900207,0.180845,-0.162712,0.029946,15.150001,-3.16875,-60.487503
1782299780912,0.172283,1.344766,9.900207,0.14175,-0.138278,0.061711,15.150001,-3.16875,-60.487503
1782299780913,0.088534,1.68694,9.9361,0.14175,-0.138278,0.061711,15.150001,-3.16875,-60.487503
1782299780926,0.270389,1.495514,9.933707,0.096546,-0.16088,0.094087,15.150001,-3.16875,-60.487503
1782299780929,0.270389,1.495514,9.933707,0.047066,-0.195088,0.109359,13.51875,-3.43125,-61.106251
1782299780930,0.303888,1.131805,10.117954,0.047066,-0.195088,0.109359,13.51875,-3.43125,-61.106251
1782299780939,0.303888,1.131805,10.117954,0.012858,-0.19631,0.125852,13.51875,-3.43125,-61.106251
1782299780940,0.416351,1.0002,10.527126,0.012858,-0.19631,0.125852,12.7875,-4.0125,-61.106251
1782299780947,0.526421,0.90688,11.060726,0.01469,-0.137056,0.135015,12.7875,-4.0125,-61.106251
1782299780949,0.526421,0.90688,11.060726,0.01469,-0.137056,0.135015,14.175,-3.88125,-62.325001
1782299780955,0.526421,0.90688,11.060726,0.062338,-0.039317,0.148454,14.175,-3.88125,-62.325001
1782299780956,0.509671,0.789631,11.417256,0.062338,-0.039317,0.148454,14.175,-3.88125,-62.325001
1782299780958,0.509671,0.789631,11.417256,0.062338,-0.039317,0.148454,12.95625,-4.3125,-61.556252
1782299780964,0.356531,0.696311,11.544076,0.131365,0.040095,0.164337,12.95625,-4.3125,-61.556252
1782299780970,0.356531,0.696311,11.544076,0.131365,0.040095,0.164337,13.668751,-3.58125,-60.487503
1782299780972,0.512064,0.612563,11.335901,0.190619,0.052312,0.178997,13.668751,-3.58125,-60.487503
1782299780978,0.512064,0.612563,11.335901,0.190619,0.052312,0.178997,13.387501,-3.88125,-60.956253
1782299780981,0.612563,0.612563,11.395721,0.232158,0.008941,0.189382,13.387501,-3.88125,-60.956253
1782299780988,0.612563,0.612563,11.395721,0.232158,0.008941,0.189382,14.343751,-5.2125,-61.125004
1782299780989,0.612563,0.612563,11.395721,0.265756,-0.009385,0.185106,14.343751,-5.2125,-61.125004
1782299780990,0.569492,0.571885,11.508184,0.265756,-0.009385,0.185106,14.343751,-5.2125,-61.125004
1782299780999,0.543171,0.598206,11.642182,0.301186,-0.004498,0.174721,13.725,-3.88125,-62.006252
1782299781007,0.416351,0.705883,11.498612,0.326231,0.015049,0.15945,13.725,-3.88125,-62.006252
1782299781008,0.416351,0.705883,11.498612,0.326231,0.015049,0.15945,11.7375,-4.44375,-61.106251
1782299781015,0.416351,0.705883,11.498612,0.332951,0.03643,0.153341,11.7375,-4.44375,-61.106251
1782299781016,0.234497,0.765703,11.343079,0.332951,0.03643,0.153341,11.7375,-4.44375,-61.106251
1782299781019,0.234497,0.765703,11.343079,0.332951,0.03643,0.153341,12.993751,-5.34375,-61.575001
1782299781027,0.023928,0.952343,11.357436,0.323788,0.07919,0.158228,12.993751,-5.34375,-61.575001
1782299781030,0.023928,0.952343,11.357436,0.323788,0.07919,0.158228,13.743751,-6.09375,-60.525002
1782299781032,0.023928,0.952343,11.357436,0.312181,0.136612,0.174721,13.743751,-6.09375,-60.525002
1782299781033,-0.196211,1.20359,11.27608,0.312181,0.136612,0.174721,13.743751,-6.09375,-60.525002
1782299781038,-0.196211,1.20359,11.27608,0.312181,0.136612,0.174721,12.806251,-5.19375,-60.356251
1782299781041,-0.196211,1.20359,11.27608,0.306684,0.201363,0.200988,12.806251,-5.19375,-60.356251
1782299781042,-0.368495,1.414158,11.187545,0.306684,0.201363,0.200988,12.806251,-5.19375,-60.356251
1782299781049,-0.368495,1.414158,11.187545,0.306684,0.201363,0.200988,12.843751,-5.49375,-61.425003
1782299781050,-0.588634,1.490728,11.118153,0.296299,0.247178,0.227866,12.843751,-5.49375,-61.425003
1782299781059,-0.588634,1.490728,11.118153,0.260258,0.285663,0.251079,12.843751,-5.49375,-61.425003
1782299781060,-0.696311,1.375873,11.101404,0.260258,0.285663,0.251079,12.843751,-5.49375,-61.425003
1782299781061,-0.696311,1.375873,11.101404,0.260258,0.285663,0.251079,12.562501,-5.475,-61.875004
1782299781067,-0.844666,1.119841,11.106189,0.172904,0.308875,0.274903,12.562501,-5.475,-61.875004
1782299781069,-0.844666,1.119841,11.106189,0.172904,0.308875,0.274903,12.675,-4.59375,-62.025002
1782299781076,-0.725025,0.72024,11.106189,0.020188,0.289939,0.288342,12.675,-4.59375,-62.025002
1782299781079,-0.725025,0.72024,11.106189,0.020188,0.289939,0.288342,13.481251,-7.125,-60.975002
1782299781084,-0.51685,0.184247,11.364614,-0.181397,0.194033,0.28712,13.481251,-7.125,-60.975002
1782299781090,-0.51685,0.184247,11.364614,-0.181397,0.194033,0.28712,13.89375,-6.54375,-60.075001
1782299781092,-0.51685,0.184247,11.364614,-0.376874,0.035819,0.25841,13.89375,-6.54375,-60.075001
1782299781093,-0.260818,-0.413958,11.783358,-0.376874,0.035819,0.25841,13.89375,-6.54375,-60.075001
1782299781098,-0.260818,-0.413958,11.783358,-0.376874,0.035819,0.25841,13.05,-7.10625,-61.593754
1782299781101,-0.002393,-0.856631,12.147068,-0.514319,-0.158436,0.210151,13.05,-7.10625,-61.593754
1782299781109,-0.002393,-0.856631,12.147068,-0.514319,-0.158436,0.210151,12.69375,-5.625,-61.275002
1782299781110,-0.002393,-0.856631,12.147068,-0.548527,-0.318483,0.1454,12.69375,-5.625,-61.275002
1782299781111,0.141177,-1.088734,12.793129,-0.548527,-0.318483,0.1454,12.69375,-5.625,-61.275002
1782299781120,-0.112463,-0.727418,13.587547,-0.408028,-0.282442,0.078815,12.843751,-5.925,-61.125004
1782299781135,-0.358923,-0.485743,12.199709,-0.12703,-0.052757,0.029335,13.63125,-6.225,-61.893753
1782299781136,-0.200997,-0.021535,10.318951,0.124035,-0.046648,0.050105,13.63125,-6.225,-61.893753
1782299781138,-0.200997,-0.021535,10.318951,0.124035,-0.046648,0.050105,13.6125,-5.94375,-61.425003
1782299781144,-0.270389,0.397209,9.617854,0.270032,-0.115065,0.07515,13.6125,-5.94375,-61.425003
1782299781149,-0.270389,0.397209,9.617854,0.270032,-0.115065,0.07515,13.6125,-6.225,-61.425003
1782299781153,-0.246461,0.710668,9.457534,0.351888,-0.10468,0.100196,13.6125,-6.225,-61.425003
1782299781158,-0.246461,0.710668,9.457534,0.351888,-0.10468,0.100196,11.887501,-7.96875,-62.212502
1782299781161,-0.239282,0.995414,9.223038,0.375711,0.009552,0.127074,11.887501,-7.96875,-62.212502
1782299781169,-0.239282,0.995414,9.223038,0.375711,0.009552,0.127074,12.3,-6.80625,-62.343754
1782299781170,-0.193819,1.268196,8.904792,0.343946,0.130503,0.147232,12.3,-6.80625,-62.343754
1782299781179,-0.193819,1.268196,8.904792,0.268199,0.153105,0.155174,12.3,-6.80625,-62.343754
1782299781180,-0.284746,1.404587,8.579369,0.268199,0.153105,0.155174,12.900001,-8.4375,-60.393753
1782299781187,-0.284746,1.404587,8.579369,0.138085,0.092018,0.154563,12.900001,-8.4375,-60.393753
1782299781188,-0.346959,1.428515,8.364015,0.138085,0.092018,0.154563,12.69375,-6.375,-60.525002
1782299781196,-0.638884,1.342373,8.524334,-0.024405,-0.012439,0.161282,12.69375,-6.375,-60.525002
1782299781198,-0.638884,1.342373,8.524334,-0.024405,-0.012439,0.161282,14.3625,-7.29375,-60.075001
1782299781204,-0.674776,1.237089,8.730116,-0.1759,-0.113843,0.177776,14.3625,-7.29375,-60.075001
1782299781209,-0.674776,1.237089,8.730116,-0.1759,-0.113843,0.177776,13.781251,-6.825,-60.975002
1782299781213,-0.564706,0.98345,8.871293,-0.28891,-0.206084,0.196101,13.781251,-6.825,-60.975002
1782299781219,-0.564706,0.98345,8.871293,-0.28891,-0.206084,0.196101,13.6125,-6.975,-60.375004
1782299781221,-0.564706,0.98345,8.871293,-0.350607,-0.281831,0.213817,13.6125,-6.975,-60.375004
1782299781222,-0.488136,0.722632,9.122539,-0.350607,-0.281831,0.213817,13.6125,-6.975,-60.375004
1782299781235,-0.428315,0.339781,9.459927,-0.370765,-0.298324,0.221758,11.94375,-6.80625,-60.525002
1782299781240,-0.263211,0.112463,9.648961,-0.347553,-0.27389,0.228477,12.243751,-6.075,-61.275002
1782299781247,-0.090927,0.083749,9.660924,-0.28219,-0.226853,0.235197,12.243751,-6.075,-61.275002
1782299781248,-0.090927,0.083749,9.660924,-0.28219,-0.226853,0.235197,11.962501,-6.80625,-60.975002
1782299781256,-0.062213,-0.011964,9.376178,-0.221104,-0.174319,0.241305,11.962501,-6.80625,-60.975002
1782299781258,-0.062213,-0.011964,9.376178,-0.221104,-0.174319,0.241305,10.89375,-6.05625,-61.275002
1782299781264,-0.062213,-0.011964,9.376178,-0.173456,-0.184092,0.249247,10.89375,-6.05625,-61.275002
1782299781265,0.026321,-0.01675,9.213467,-0.173456,-0.184092,0.249247,10.89375,-6.05625,-61.275002
1782299781270,0.026321,-0.01675,9.213467,-0.173456,-0.184092,0.249247,12.0,-7.3875,-61.593754
1782299781273,0.0335,0.009571,9.24218,-0.144135,-0.192034,0.250468,12.0,-7.3875,-61.593754
1782299781278,0.0335,0.009571,9.24218,-0.144135,-0.192034,0.250468,12.150001,-7.6875,-61.143753
1782299781281,0.0335,0.009571,9.24218,-0.113591,-0.173097,0.25169,12.150001,-7.6875,-61.143753
1782299781282,0.066999,0.011964,9.184753,-0.113591,-0.173097,0.25169,12.150001,-7.6875,-61.143753
1782299781289,0.066999,0.011964,9.184753,-0.113591,-0.173097,0.25169,12.675,-6.825,-59.456253
1782299781290,0.143569,-0.002393,9.019648,-0.067776,-0.152938,0.246803,12.675,-6.825,-59.456253
1782299781300,0.157926,0.095713,8.998112,-0.010355,-0.137056,0.23764,12.20625,-5.34375,-60.506252
1782299781307,0.124427,0.222533,8.780365,0.044623,-0.106513,0.220536,12.20625,-5.34375,-60.506252
1782299781309,0.124427,0.222533,8.780365,0.044623,-0.106513,0.220536,10.125,-5.30625,-61.575001
1782299781316,0.133998,0.416351,8.488441,0.092881,-0.096739,0.209541,10.125,-5.30625,-61.575001
1782299781319,0.133998,0.416351,8.488441,0.092881,-0.096739,0.209541,10.59375,-5.45625,-61.875004
1782299781324,0.133998,0.416351,8.488441,0.120981,-0.088798,0.201599,10.59375,-5.45625,-61.875004
1782299781325,0.167498,0.600598,8.167803,0.120981,-0.088798,0.201599,10.59375,-5.45625,-61.875004
1782299781334,0.150748,0.741775,7.935699,0.135031,-0.091852,0.194269,10.1625,-7.06875,-61.293751
1782299781338,0.150748,0.741775,7.935699,0.135031,-0.091852,0.194269,10.275001,-6.20625,-60.675003
1782299781341,0.150748,0.741775,7.935699,0.138696,-0.088798,0.183273,10.275001,-6.20625,-60.675003
1782299781342,0.114855,0.856631,7.772987,0.138696,-0.088798,0.183273,10.275001,-6.20625,-60.675003
1782299781349,0.114855,0.856631,7.772987,0.138696,-0.088798,0.183273,11.043751,-6.50625,-61.125004
1782299781350,0.143569,0.981057,7.615061,0.139307,-0.081467,0.172889,11.043751,-6.50625,-61.125004
1782299781359,0.143569,0.981057,7.615061,0.14175,-0.07658,0.15945,11.043751,-6.50625,-61.125004
1782299781360,0.177069,1.062413,7.569598,0.14175,-0.07658,0.15945,11.043751,-6.50625,-61.125004
1782299781361,0.177069,1.062413,7.569598,0.14175,-0.07658,0.15945,12.31875,-6.35625,-62.793751
1782299781368,0.198604,1.100698,7.655739,0.136252,-0.057643,0.141735,12.31875,-6.35625,-62.793751
1782299781369,0.198604,1.100698,7.655739,0.136252,-0.057643,0.141735,12.31875,-6.35625,-62.793751
1782299781376,0.217747,1.098306,7.761024,0.119759,-0.028322,0.122187,12.31875,-6.35625,-62.793751
1782299781379,0.217747,1.098306,7.761024,0.119759,-0.028322,0.122187,11.231251,-7.3875,-60.993752
1782299781385,0.208176,1.11027,7.875879,0.090437,-0.007553,0.097141,11.231251,-7.3875,-60.993752
1782299781389,0.208176,1.11027,7.875879,0.090437,-0.007553,0.097141,9.8625,-6.91875,-61.143753
1782299781393,0.165105,1.086342,8.048162,0.054396,-0.003276,0.06782,9.8625,-6.91875,-61.143753
1782299781399,0.165105,1.086342,8.048162,0.054396,-0.003276,0.06782,8.681251,-8.53125,-60.543751
1782299781402,0.129212,1.033699,8.249159,0.015301,-0.017937,0.037887,8.681251,-8.53125,-60.543751
1782299781409,0.129212,1.033699,8.249159,0.015301,-0.017937,0.037887,9.543751,-7.21875,-60.375004
1782299781410,0.083749,1.019342,8.469299,-0.019518,-0.044815,0.009788,9.543751,-7.21875,-60.375004
1782299781420,0.069392,0.985843,8.691831,-0.039677,-0.079024,-0.014647,10.9125,-7.8375,-60.225002
1782299781428,0.124427,0.930808,8.909578,-0.041509,-0.117508,-0.036638,10.9125,-7.8375,-60.225002
1782299781429,0.124427,0.930808,8.909578,-0.041509,-0.117508,-0.036638,10.33125,-7.96875,-60.693752
1782299781444,0.200997,0.861416,9.117754,-0.028681,-0.152938,-0.058018,9.28125,-8.400001,-60.393753
1782299781445,0.251246,0.842274,9.287644,-0.007912,-0.179816,-0.073901,9.28125,-8.400001,-60.393753
1782299781450,0.251246,0.842274,9.287644,-0.007912,-0.179816,-0.073901,9.88125,-7.66875,-61.443752
1782299781453,0.196211,0.878166,9.452749,-0.007912,-0.179816,-0.073901,9.88125,-7.66875,-61.443752
1782299781454,0.196211,0.878166,9.452749,0.015301,-0.185314,-0.080009,9.88125,-7.66875,-61.443752
1782299781459,0.196211,0.878166,9.452749,0.015301,-0.185314,-0.080009,10.275001,-7.6875,-59.325001
1782299781462,0.167498,0.937986,9.603497,0.046455,-0.16821,-0.076955,10.275001,-7.6875,-59.325001
1782299781469,0.167498,0.937986,9.603497,0.046455,-0.16821,-0.076955,10.6125,-6.9375,-61.143753
1782299781470,0.167498,0.937986,9.603497,0.085551,-0.140721,-0.067792,10.6125,-6.9375,-61.143753
1782299781471,0.145962,1.043271,9.660924,0.085551,-0.140721,-0.067792,10.6125,-6.9375,-61.143753
1782299781480,0.215354,1.172483,9.591532,0.138696,-0.116286,-0.054964,9.84375,-6.1875,-61.425003
1782299781488,0.191426,1.246661,9.522141,0.19795,-0.095517,-0.043968,9.84375,-6.1875,-61.425003
1782299781489,0.191426,1.246661,9.522141,0.19795,-0.095517,-0.043968,10.200001,-7.06875,-62.043751
1782299781496,0.191426,1.246661,9.522141,0.248651,-0.068639,-0.033584,10.200001,-7.06875,-62.043751
1782299781497,0.217747,1.294517,9.541283,0.248651,-0.068639,-0.033584,10.200001,-7.06875,-62.043751
1782299781498,0.217747,1.294517,9.541283,0.248651,-0.068639,-0.033584,9.675,-7.0875,-60.225002
1782299781505,0.198604,1.354338,9.610675,0.277973,-0.042983,-0.025032,9.675,-7.0875,-60.225002
1782299781509,0.198604,1.354338,9.610675,0.277973,-0.042983,-0.025032,10.368751,-7.95,-61.912502
1782299781513,0.160319,1.409373,9.790137,0.284082,-0.025878,-0.019534,10.368751,-7.95,-61.912502
1782299781519,0.160319,1.409373,9.790137,0.284082,-0.025878,-0.019534,9.0,-9.28125,-60.243752
1782299781522,0.119641,1.430908,9.916956,0.271864,-0.024046,-0.020145,9.0,-9.28125,-60.243752
1782299781529,0.119641,1.430908,9.916956,0.271864,-0.024046,-0.020145,9.0,-8.83125,-60.993752
1782299781530,0.119641,1.430908,9.916956,0.254149,-0.036874,-0.026864,9.0,-8.83125,-60.993752
