ts,ax,ay,az,gx,gy,gz,mx,my,mz
1782299376787,0.196211,0.459422,9.426428,0.078373,0.101792,0.028877,-5.90625,13.856251,-21.712502
1782299376808,0.141177,0.459422,9.416856,0.011178,-0.079635,0.041705,-4.55625,10.89375,-23.25
1782299376809,0.181855,0.421137,9.636997,-0.043189,-0.127893,0.045981,-6.75,13.275001,-23.081251
1782299376817,0.200997,0.433101,9.787744,-0.071289,-0.124839,0.048425,-6.75,13.275001,-23.081251
1782299376818,0.200997,0.433101,9.787744,-0.071289,-0.124839,0.048425,-6.24375,12.993751,-24.150002
1782299376832,0.208176,0.442672,9.790137,-0.063959,-0.093074,0.050258,-4.875,11.94375,-23.400002
1782299376835,0.217747,0.428315,9.694424,-0.035859,-0.061919,0.05209,-4.875,11.94375,-23.400002
1782299376839,0.217747,0.428315,9.694424,-0.035859,-0.061919,0.05209,-6.225,12.543751,-24.450001
1782299376842,0.212961,0.452243,9.610675,-0.007759,-0.031376,0.051479,-6.225,12.543751,-24.450001
1782299376848,0.212961,0.452243,9.610675,-0.007759,-0.031376,0.051479,-6.54375,11.3625,-22.800001
1782299376852,0.191426,0.442672,9.603497,0.009345,-0.001444,0.052701,-6.54375,11.3625,-22.800001
1782299376860,0.179462,0.461815,9.646568,0.006902,0.023602,0.053923,-5.38125,13.125001,-23.231251
1782299376869,0.179462,0.464208,9.66571,-0.009592,0.037651,0.055144,-5.2125,12.525001,-23.081251
1782299376877,0.172283,0.461815,9.660924,-0.037081,0.035208,0.054534,-5.2125,12.525001,-23.081251
1782299376879,0.172283,0.461815,9.660924,-0.037081,0.035208,0.054534,-5.49375,11.94375,-23.1
1782299376885,0.191426,0.440279,9.680068,-0.060904,0.018104,0.052701,-5.49375,11.94375,-23.1
1782299376888,0.191426,0.440279,9.680068,-0.060904,0.018104,0.052701,-5.8125,13.425,-24.300001
1782299376894,0.222533,0.421137,9.770995,-0.072511,-0.001444,0.048425,-5.8125,13.425,-24.300001
1782299376901,0.222533,0.421137,9.770995,-0.072511,-0.001444,0.048425,-4.3125,13.106251,-23.231251
1782299376902,0.222533,0.421137,9.770995,-0.065791,-0.004498,0.045981,-4.3125,13.106251,-23.231251
1782299376903,0.270389,0.413958,9.888242,-0.065791,-0.004498,0.045981,-4.3125,13.106251,-23.231251
1782299376911,0.31346,0.447458,9.938492,-0.047465,0.007108,0.042927,-6.13125,13.125001,-23.231251
1782299376919,0.31346,0.447458,9.938492,-0.047465,0.007108,0.042927,-6.73125,13.725,-23.681252
1782299376920,0.289532,0.468993,9.883457,-0.024863,0.022991,0.039873,-6.73125,13.725,-23.681252
1782299376933,0.270389,0.519243,9.799708,-0.009592,0.030932,0.039262,-5.5125,12.975,-23.38125
1782299376937,0.277567,0.571885,9.692031,-0.008981,0.02971,0.038651,-5.5125,12.975,-23.38125
1782299376938,0.277567,0.571885,9.692031,-0.008981,0.02971,0.038651,-5.85,13.406251,-22.78125
1782299376945,0.294317,0.619741,9.60589,-0.016922,0.019936,0.040484,-5.85,13.406251,-22.78125
1782299376948,0.294317,0.619741,9.60589,-0.016922,0.019936,0.040484,-6.1125,13.875001,-24.6
1782299376954,0.363709,0.653241,9.577176,-0.031583,0.007719,0.042316,-6.1125,13.875001,-24.6
1782299376959,0.363709,0.653241,9.577176,-0.031583,0.007719,0.042316,-5.83125,12.825001,-22.78125
1782299376962,0.363709,0.653241,9.577176,-0.0438,0.011384,0.045371,-5.83125,12.825001,-22.78125
1782299376963,0.394816,0.667598,9.584354,-0.0438,0.011384,0.045371,-5.83125,12.825001,-22.78125
1782299376968,0.394816,0.667598,9.584354,-0.0438,0.011384,0.045371,-5.85,14.156251,-23.53125
1782299376971,0.425922,0.672383,9.596319,-0.048687,0.030932,0.049647,-5.85,14.156251,-23.53125
1782299376978,0.425922,0.672383,9.596319,-0.048687,0.030932,0.049647,-5.56875,14.00625,-23.081251
1782299376980,0.442672,0.68674,9.636997,-0.041967,0.051091,0.053312,-5.56875,14.00625,-23.081251
1782299376989,0.442672,0.68674,9.636997,-0.034026,0.072471,0.056366,-5.56875,14.00625,-23.081251
1782299376990,0.437887,0.684347,9.694424,-0.034026,0.072471,0.056366,-6.28125,12.243751,-22.63125
1782299376997,0.409173,0.693919,9.694424,-0.029139,0.092629,0.061253,-6.28125,12.243751,-22.63125
1782299376998,0.409173,0.693919,9.694424,-0.029139,0.092629,0.061253,-4.5375,12.093751,-24.618752
1782299377006,0.397209,0.701097,9.689639,-0.030361,0.107901,0.066751,-4.5375,12.093751,-24.618752
1782299377009,0.397209,0.701097,9.689639,-0.030361,0.107901,0.066751,-7.0875,15.056251,-23.362501
1782299377014,0.397209,0.739382,9.694424,-0.034026,0.112788,0.07347,-7.0875,15.056251,-23.362501
1782299377020,0.397209,0.739382,9.694424,-0.034026,0.112788,0.07347,-5.9625,13.725,-24.13125
1782299377022,0.397209,0.739382,9.694424,-0.035248,0.11401,0.081412,-5.9625,13.725,-24.13125
1782299377023,0.382852,0.734597,9.644175,-0.035248,0.11401,0.081412,-5.9625,13.725,-24.13125
1782299377034,0.318245,0.710668,9.694424,-0.032804,0.105457,0.088742,-5.45625,11.94375,-24.150002
1782299377039,0.318245,0.710668,9.694424,-0.032804,0.105457,0.088742,-6.0,13.725,-23.38125
1782299377040,0.246461,0.696311,9.811673,-0.023031,0.094462,0.091185,-6.0,13.725,-23.38125
1782299377050,0.227318,0.717847,9.849958,-0.013257,0.075525,0.096072,-4.89375,12.525001,-23.700001
1782299377057,0.222533,0.756132,9.830815,-0.005316,0.052923,0.099738,-4.89375,12.525001,-23.700001
1782299377063,0.222533,0.756132,9.830815,-0.005316,0.052923,0.099738,-4.59375,12.825001,-23.53125
1782299377065,0.222533,0.756132,9.830815,0.000793,0.030321,0.103403,-4.59375,12.825001,-23.53125
1782299377066,0.193819,0.756132,9.802101,0.000793,0.030321,0.103403,-4.59375,12.825001,-23.53125
1782299377069,0.193819,0.756132,9.802101,0.000793,0.030321,0.103403,-5.83125,12.825001,-22.78125
1782299377074,0.193819,0.756132,9.802101,0.002626,0.014439,0.107068,-5.83125,12.825001,-22.78125
1782299377075,0.184247,0.746561,9.763816,0.002626,0.014439,0.107068,-5.83125,12.825001,-22.78125
1782299377080,0.184247,0.746561,9.763816,0.002626,0.014439,0.107068,-3.88125,12.356251,-22.03125
1782299377082,0.184247,0.746561,9.763816,-0.005316,0.014439,0.110733,-3.88125,12.356251,-22.03125
1782299377084,0.150748,0.717847,9.706388,-0.005316,0.014439,0.110733,-3.88125,12.356251,-22.03125
1782299377088,0.150748,0.717847,9.706388,-0.005316,0.014439,0.110733,-6.1125,11.64375,-22.481251
1782299377091,0.11007,0.605384,9.569997,-0.021198,0.025434,0.110733,-6.1125,11.64375,-22.481251
1782299377098,0.11007,0.605384,9.569997,-0.021198,0.025434,0.110733,-5.2125,11.925,-22.331251
1782299377101,0.057428,0.595813,9.546069,-0.043189,0.030321,0.109511,-5.2125,11.925,-22.331251
1782299377110,0.043071,0.598206,9.608283,-0.063348,0.042538,0.113177,-3.88125,13.837501,-23.231251
1782299377118,-0.011964,0.732204,9.828422,-0.079841,0.046814,0.126005,-3.88125,13.837501,-23.231251
1782299377119,-0.011964,0.732204,9.828422,-0.079841,0.046814,0.126005,-3.525,12.356251,-23.550001
1782299377126,-0.0335,0.696311,9.957634,-0.08595,0.035208,0.147385,-3.525,12.356251,-23.550001
1782299377128,-0.0335,0.696311,9.957634,-0.08595,0.035208,0.147385,-4.89375,13.275001,-24.450001
1782299377141,-0.019143,0.519243,9.967206,-0.089615,-0.005109,0.160213,-3.8625,13.106251,-23.53125
1782299377143,0.004786,0.428315,9.919349,-0.082285,-0.0552,0.165711,-3.8625,13.106251,-23.53125
1782299377148,0.004786,0.428315,9.919349,-0.082285,-0.0552,0.165711,-5.0625,12.075001,-22.78125
1782299377153,-0.014357,0.447458,9.871493,-0.047465,-0.084521,0.169987,-5.0625,12.075001,-22.78125
1782299377159,-0.014357,0.447458,9.871493,-0.047465,-0.084521,0.169987,-5.0625,12.075001,-22.78125
1782299377160,-0.055035,0.485743,9.828422,0.01973,-0.072304,0.169376,-5.0625,12.075001,-22.78125
1782299377170,-0.066999,0.540778,9.651353,0.10464,-0.036874,0.164489,-3.58125,13.087501,-22.78125
1782299377177,-0.12682,0.741775,9.380964,0.187718,-0.011218,0.149828,-3.58125,13.087501,-22.78125
1782299377178,-0.12682,0.741775,9.380964,0.187718,-0.011218,0.149828,-5.15625,11.19375,-23.400002
1782299377186,-0.224925,1.052842,9.132111,0.24575,0.010163,0.140666,-5.15625,11.19375,-23.400002
1782299377188,-0.224925,1.052842,9.132111,0.24575,0.010163,0.140666,-5.79375,13.14375,-24.6
1782299377194,-0.224925,1.052842,9.132111,0.273239,0.02971,0.138222,-5.79375,13.14375,-24.6
1782299377195,-0.227318,1.361516,9.048362,0.273239,0.02971,0.138222,-5.79375,13.14375,-24.6
1782299377200,-0.227318,1.361516,9.048362,0.273239,0.02971,0.138222,-4.25625,12.375001,-24.300001
1782299377203,-0.442672,1.548156,9.034005,0.261021,0.04376,0.147996,-4.25625,12.375001,-24.300001
1782299377210,-0.442672,1.548156,9.034005,0.261021,0.04376,0.147996,-5.08125,13.856251,-23.53125
1782299377212,-0.564706,1.663012,8.904792,0.202989,0.045593,0.169987,-5.08125,13.856251,-23.53125
1782299377218,-0.564706,1.663012,8.904792,0.202989,0.045593,0.169987,-5.19375,12.525001,-23.700001
1782299377220,-0.447458,1.691726,8.844972,0.098531,0.026045,0.188313,-5.19375,12.525001,-23.700001
1782299377229,-0.332602,1.658226,9.041183,-0.028528,-0.018548,0.201752,-4.59375,12.075001,-23.25
1782299377242,-0.29671,1.598405,9.44557,-0.140317,-0.065585,0.220078,-5.1,12.375001,-21.731251
1782299377246,-0.229711,1.454836,9.861922,-0.222783,-0.080856,0.240236,-5.1,12.375001,-21.731251
1782299377249,-0.229711,1.454836,9.861922,-0.222783,-0.080856,0.240236,-5.4,13.406251,-22.78125
1782299377254,-0.136391,1.234697,10.213666,-0.286313,-0.0552,0.256119,-5.4,13.406251,-22.78125
1782299377259,-0.136391,1.234697,10.213666,-0.286313,-0.0552,0.256119,-5.26875,13.25625,-21.862501
1782299377263,-0.038285,1.004985,10.412271,-0.341291,-0.011829,0.265893,-5.26875,13.25625,-21.862501
1782299377268,-0.038285,1.004985,10.412271,-0.341291,-0.011829,0.265893,-5.08125,14.156251,-23.981251
1782299377271,-0.038285,0.775275,10.536698,-0.38955,0.023602,0.270169,-5.08125,14.156251,-23.981251
1782299377278,-0.038285,0.775275,10.536698,-0.38955,0.023602,0.270169,-5.3625,13.125001,-23.53125
1782299377280,-0.055035,0.598206,10.630018,-0.423758,0.040095,0.268947,-5.3625,13.125001,-23.53125
1782299377289,-0.055035,0.598206,10.630018,-0.434754,0.037041,0.262838,-5.3625,13.125001,-23.53125
1782299377290,-0.050249,0.442672,10.847765,-0.434754,0.037041,0.262838,-5.11875,13.837501,-22.462502
1782299377297,-0.050249,0.442672,10.847765,-0.413984,0.041928,0.254286,-5.11875,13.837501,-22.462502
1782299377298,0.011964,0.339781,11.041584,-0.413984,0.041928,0.254286,-4.65,13.406251,-22.78125
1782299377306,0.031107,0.339781,11.094225,-0.359006,0.055367,0.240847,-4.65,13.406251,-22.78125
1782299377308,0.031107,0.339781,11.094225,-0.359006,0.055367,0.240847,-4.35,13.087501,-22.012501
1782299377314,0.028714,0.40678,10.933906,-0.270431,0.06514,0.223743,-4.35,13.087501,-22.012501
1782299377319,0.028714,0.40678,10.933906,-0.270431,0.06514,0.223743,-4.95,14.00625,-23.38125
1782299377323,0.028714,0.519243,10.687445,-0.166584,0.054756,0.202974,-4.95,14.00625,-23.38125
1782299377328,0.028714,0.519243,10.687445,-0.166584,0.054756,0.202974,-5.86875,13.106251,-22.012501
1782299377331,0.028714,0.519243,10.687445,-0.067624,0.024823,0.178539,-5.86875,13.106251,-22.012501
1782299377332,0.038285,0.677169,10.323737,-0.067624,0.024823,0.178539,-5.86875,13.106251,-22.012501
1782299377342,0.057428,0.875773,9.878671,0.014232,-0.006942,0.155937,-4.6875,13.837501,-22.012501
1782299377350,0.043071,1.064806,9.476677,0.073486,-0.027711,0.134557,-5.11875,14.587501,-23.53125
1782299377357,0.062213,1.227518,9.101004,0.103418,-0.042983,0.115009,-5.11875,14.587501,-23.53125
1782299377358,0.062213,1.227518,9.101004,0.103418,-0.042983,0.115009,-3.91875,13.837501,-22.462502
1782299377366,0.07657,1.378266,8.739687,0.101586,-0.049091,0.097905,-3.91875,13.837501,-22.462502
1782299377368,0.07657,1.378266,8.739687,0.101586,-0.049091,0.097905,-5.25,12.225,-21.581251
1782299377375,0.083749,1.478764,8.474084,0.075929,-0.052146,0.088131,-5.25,12.225,-21.581251
1782299377380,0.083749,1.478764,8.474084,0.075929,-0.052146,0.088131,-3.95625,15.900001,-23.212502
1782299377383,0.083749,1.564906,8.423835,0.040499,-0.04787,0.085688,-3.95625,15.900001,-23.212502
1782299377388,0.083749,1.564906,8.423835,0.040499,-0.04787,0.085688,-3.3375,14.55,-22.012501
1782299377392,0.07657,1.584049,8.60569,0.01301,-0.025878,0.085688,-3.3375,14.55,-22.012501
1782299377399,0.07657,1.584049,8.60569,0.01301,-0.025878,0.085688,-3.675,12.95625,-24.150002
1782299377400,0.07657,1.584049,8.60569,-0.004094,0.027878,0.089964,-3.675,12.95625,-24.150002
1782299377401,0.047856,1.581656,8.787544,-0.004094,0.027878,0.089964,-3.675,12.95625,-24.150002
1782299377410,0.009571,1.584049,8.957434,-0.006537,0.084688,0.097294,-3.84375,12.356251,-23.25
1782299377418,-0.081356,1.579263,9.103397,-0.002261,0.125616,0.105846,-3.84375,12.356251,-23.25
1782299377419,-0.081356,1.579263,9.103397,-0.002261,0.125616,0.105846,-6.20625,14.887501,-22.462502
1782299377426,-0.165105,1.579263,9.330715,0.006291,0.145164,0.115009,-6.20625,14.887501,-22.462502
1782299377429,-0.165105,1.579263,9.330715,0.006291,0.145164,0.115009,-4.33125,13.406251,-23.231251
1782299377435,-0.246461,1.344766,9.526927,0.011178,0.156159,0.129059,-4.33125,13.406251,-23.231251
1782299377439,-0.246461,1.344766,9.526927,0.011178,0.156159,0.129059,-3.6375,14.85,-22.462502
1782299377449,-0.256032,1.287339,9.641782,0.005069,0.157992,0.145552,-4.4625,16.331251,-21.69375
1782299377452,-0.31346,1.320838,9.79253,0.003847,0.139666,0.163267,-4.4625,16.331251,-21.69375
1782299377459,-0.31346,1.320838,9.79253,0.003847,0.139666,0.163267,-4.55625,14.718751,-22.3125
1782299377460,-0.31346,1.320838,9.79253,0.002626,0.13539,0.183426,-4.55625,14.718751,-22.3125
1782299377461,-0.325424,1.277767,9.900207,0.002626,0.13539,0.183426,-4.55625,14.718751,-22.3125
1782299377469,-0.308674,1.143769,9.988741,0.002015,0.131725,0.209082,-4.25625,14.26875,-21.5625
1782299377477,-0.301496,1.043271,10.08924,-0.005926,0.12134,0.227408,-4.25625,14.26875,-21.5625
1782299377478,-0.301496,1.043271,10.08924,-0.005926,0.12134,0.227408,-3.6,15.31875,-24.281252
1782299377486,-0.325424,1.004985,10.172988,-0.021198,0.093851,0.240847,-3.6,15.31875,-24.281252
1782299377488,-0.325424,1.004985,10.172988,-0.021198,0.093851,0.240847,-3.54375,16.78125,-22.59375
1782299377495,-0.334995,0.952343,10.256737,-0.046854,0.062086,0.249399,-3.54375,16.78125,-22.59375
1782299377500,-0.334995,0.952343,10.256737,-0.046854,0.062086,0.249399,-4.48125,14.7375,-24.431252
1782299377503,-0.320638,0.916451,10.354843,-0.0719,0.019936,0.251232,-4.48125,14.7375,-24.431252
1782299377509,-0.320638,0.916451,10.354843,-0.0719,0.019936,0.251232,-3.75,14.26875,-23.38125
1782299377512,-0.320638,0.921237,10.472091,-0.084728,-0.028322,0.247567,-3.75,14.26875,-23.38125
1782299377518,-0.320638,0.921237,10.472091,-0.084728,-0.028322,0.247567,-3.6375,14.56875,-22.462502
1782299377520,-0.318245,0.930808,10.524733,-0.078008,-0.069861,0.237793,-3.6375,14.56875,-22.462502
1782299377530,-0.31346,0.937986,10.474484,-0.048687,-0.099793,0.224354,-3.75,13.9875,-23.081251
1782299377539,-0.311067,0.995414,10.251952,0.002626,-0.10468,0.209082,-4.2375,15.468751,-23.362501
1782299377549,-0.299103,1.081556,9.969598,0.066156,-0.090019,0.190756,-3.05625,16.181252,-23.043751
1782299377555,-0.311067,1.18684,9.63939,0.131518,-0.0552,0.166933,-3.05625,16.181252,-23.043751
1782299377559,-0.311067,1.18684,9.63939,0.131518,-0.0552,0.166933,-4.35,14.587501,-23.53125
1782299377563,-0.308674,1.311267,9.290037,0.177944,-0.017937,0.140666,-4.35,14.587501,-23.53125
1782299377568,-0.308674,1.311267,9.290037,0.177944,-0.017937,0.140666,-3.825,15.750001,-22.59375
1782299377572,-0.289532,1.433301,8.983756,0.19627,0.012606,0.116842,-3.825,15.750001,-22.59375
1782299377578,-0.289532,1.433301,8.983756,0.19627,0.012606,0.116842,-4.575,15.750001,-22.59375
1782299377580,-0.289532,1.433301,8.983756,0.185274,0.026656,0.093629,-4.575,15.750001,-22.59375
1782299377581,-0.267996,1.519442,8.751652,0.185274,0.026656,0.093629,-4.575,15.750001,-22.59375
1782299377589,-0.267996,1.519442,8.751652,0.152898,0.026045,0.07347,-4.575,15.750001,-22.59375
1782299377590,-0.244068,1.584049,8.636797,0.152898,0.026045,0.07347,-3.825,15.750001,-22.59375
1782299377599,-0.177069,1.615155,8.691831,0.107694,0.029099,0.056977,-3.46875,14.718751,-23.0625
1782299377606,-0.088534,1.615155,8.866507,0.058825,0.046204,0.041705,-3.46875,14.718751,-23.0625
1782299377608,-0.088534,1.615155,8.866507,0.058825,0.046204,0.041705,-4.25625,16.200001,-23.6625
1782299377615,-0.031107,1.569692,9.079468,0.015454,0.06453,0.025212,-4.25625,16.200001,-23.6625
1782299377619,-0.031107,1.569692,9.079468,0.015454,0.06453,0.025212,-3.91875,15.31875,-23.512501
1782299377623,-0.086142,1.51705,9.287644,-0.014479,0.063919,0.010551,-3.91875,15.31875,-23.512501
1782299377629,-0.086142,1.51705,9.287644,-0.014479,0.063919,0.010551,-3.43125,13.9875,-23.38125
1782299377632,-0.12682,1.48355,9.522141,-0.026696,0.043149,-0.000444,-3.43125,13.9875,-23.38125
1782299377638,-0.12682,1.48355,9.522141,-0.026696,0.043149,-0.000444,-3.43125,13.9875,-23.38125
1782299377641,-0.124427,1.454836,9.725531,-0.019365,0.012606,-0.010829,-3.43125,13.9875,-23.38125
1782299377650,-0.124427,1.414158,9.866707,0.00568,-0.003887,-0.01877,-3.61875,14.118751,-22.462502
1782299377659,-0.102891,1.418944,9.904993,0.039278,0.005276,-0.021825,-4.2,15.468751,-24.431252
1782299377667,-0.102891,1.418944,9.904993,0.066156,0.027878,-0.020603,-4.2,15.468751,-24.431252
1782299377668,-0.064606,1.430908,9.893029,0.066156,0.027878,-0.020603,-4.275,15.750001,-22.59375
1782299377675,-0.064606,1.430908,9.893029,0.077762,0.044371,-0.016327,-4.275,15.750001,-22.59375
1782299377676,-0.052642,1.481157,9.890635,0.077762,0.044371,-0.016327,-4.275,15.750001,-22.59375
1782299377680,-0.052642,1.481157,9.890635,0.077762,0.044371,-0.016327,-3.3375,15.3,-23.212502
1782299377684,-0.078963,1.488336,9.919349,0.078373,0.045593,-0.009607,-3.3375,15.3,-23.212502
1782299377689,-0.078963,1.488336,9.919349,0.078373,0.045593,-0.009607,-3.54375,16.481251,-22.59375
1782299377692,-0.095713,1.471586,10.012669,0.077762,0.03643,-0.002277,-3.54375,16.481251,-22.59375
1782299377698,-0.095713,1.471586,10.012669,0.077762,0.03643,-0.002277,-2.98125,15.01875,-24.13125
1782299377701,-0.095713,1.471586,10.146668,0.079595,0.027267,0.003221,-2.98125,15.01875,-24.13125
1782299377710,-0.138784,1.481157,10.208881,0.084482,0.027878,0.006275,-3.6375,15.900001,-23.512501
1782299377720,-0.16989,1.497907,10.249559,0.089368,0.020547,0.008719,-3.7875,15.450001,-23.362501
1782299377727,-0.181855,1.495514,10.306986,0.093645,-0.003887,0.00994,-3.7875,15.450001,-23.362501
1782299377728,-0.181855,1.495514,10.306986,0.093645,-0.003887,0.00994,-3.8625,16.181252,-21.84375
1782299377735,-0.179462,1.481157,10.409878,0.101586,-0.035652,0.00994,-3.8625,16.181252,-21.84375
1782299377740,-0.179462,1.481157,10.409878,0.101586,-0.035652,0.00994,-4.0125,16.63125,-21.993752
1782299377743,-0.179462,1.481157,10.409878,0.121744,-0.058865,0.010551,-4.0125,16.63125,-21.993752
1782299377744,-0.227318,1.435694,10.527126,0.121744,-0.058865,0.010551,-4.0125,16.63125,-21.993752
1782299377749,-0.227318,1.435694,10.527126,0.121744,-0.058865,0.010551,-3.0375,14.700001,-22.612501
1782299377755,-0.301496,1.371087,10.64916,0.159007,-0.06925,0.014216,-3.0375,14.700001,-22.612501
1782299377758,-0.301496,1.371087,10.64916,0.159007,-0.06925,0.014216,-2.86875,15.6,-23.512501
1782299377760,-0.375673,1.354338,10.689838,0.209098,-0.075969,0.012995,-2.86875,15.6,-23.512501
1782299377769,-0.433101,1.39023,10.692231,0.259189,-0.091241,0.010551,-4.70625,16.35,-23.512501
1782299377779,-0.471386,1.495514,10.613268,0.259189,-0.091241,0.010551,-4.70625,16.35,-23.512501
1782299377780,-0.471386,1.495514,10.613268,0.303171,-0.107123,0.00994,-2.5875,15.281251,-22.762501
1782299377786,-0.471386,1.495514,10.613268,0.334936,-0.122395,0.011773,-2.5875,15.281251,-22.762501
1782299377787,-0.452243,1.591227,10.507984,0.334936,-0.122395,0.011773,-2.5875,15.281251,-22.762501
1782299377788,-0.452243,1.591227,10.507984,0.334936,-0.122395,0.011773,-3.075,16.762501,-23.043751
1782299377795,-0.31346,1.588834,10.3692,0.351429,-0.134612,0.010551,-3.075,16.762501,-23.043751
1782299377799,-0.31346,1.588834,10.3692,0.351429,-0.134612,0.010551,-4.29375,16.78125,-22.59375
1782299377803,-0.155533,1.488336,10.371593,0.343488,-0.150495,0.004443,-4.29375,16.78125,-22.59375
1782299377809,-0.155533,1.488336,10.371593,0.343488,-0.150495,0.004443,-3.6375,16.35,-23.962502
1782299377812,-0.052642,1.395016,10.58934,0.320275,-0.162712,-0.007164,-3.6375,16.35,-23.962502
1782299377819,-0.052642,1.395016,10.58934,0.320275,-0.162712,-0.007164,-3.01875,16.78125,-24.862501
1782299377821,0.011964,1.392623,10.902799,0.289121,-0.174929,-0.02549,-3.01875,16.78125,-24.862501
1782299377829,0.011964,1.392623,10.902799,0.268963,-0.179206,-0.048092,-3.01875,16.78125,-24.862501
1782299377830,0.040678,1.411765,11.187545,0.268963,-0.179206,-0.048092,-3.675,15.6,-22.44375
1782299377839,0.040678,1.411765,11.187545,0.276293,-0.172486,-0.073748,-3.675,15.6,-22.44375
1782299377840,0.083749,1.399801,11.323936,0.276293,-0.172486,-0.073748,-3.35625,15.6,-22.762501
1782299377846,0.083749,1.399801,11.323936,0.303782,-0.137056,-0.105513,-3.35625,15.6,-22.762501
1782299377847,0.162712,1.349552,11.201902,0.303782,-0.137056,-0.105513,-3.35625,15.6,-22.762501
1782299377848,0.162712,1.349552,11.201902,0.303782,-0.137056,-0.105513,-3.2625,14.137501,-23.981251
1782299377858,0.272782,1.251446,10.921942,0.328827,-0.079024,-0.141554,-3.2625,14.137501,-23.981251
1782299377860,0.272782,1.251446,10.921942,0.328827,-0.079024,-0.141554,-3.6375,15.900001,-23.512501
1782299377864,0.401994,1.131805,10.536698,0.321497,-0.028933,-0.181871,-3.6375,15.900001,-23.512501
1782299377869,0.401994,1.131805,10.536698,0.321497,-0.028933,-0.181871,-3.6,15.918751,-25.031252
1782299377872,0.488136,1.012164,10.321344,0.262243,0.013217,-0.225853,-3.6,15.918751,-25.031252
1782299377878,0.488136,1.012164,10.321344,0.262243,0.013217,-0.225853,-2.64375,14.718751,-24.88125
1782299377881,0.51685,0.859023,10.247166,0.147401,0.055977,-0.268614,-2.64375,14.718751,-24.88125
1782299377890,0.4666,0.693919,10.316558,-0.004705,0.098738,-0.299157,-3.31875,15.900001,-24.262501
1782299377900,0.425922,0.504886,10.519948,-0.160475,0.158603,-0.31504,-3.6375,15.6,-23.512501
1782299377906,0.425922,0.504886,10.519948,-0.283259,0.230685,-0.319927,-3.6375,15.6,-23.512501
1782299377907,0.40678,0.27996,10.823836,-0.283259,0.230685,-0.319927,-3.6375,15.6,-23.512501
1782299377908,0.40678,0.27996,10.823836,-0.283259,0.230685,-0.319927,-3.46875,15.750001,-24.112501
1782299377915,0.294317,0.026321,11.16601,-0.337015,0.289328,-0.313207,-3.46875,15.750001,-24.112501
1782299377920,0.294317,0.026321,11.16601,-0.337015,0.289328,-0.313207,-1.70625,17.212502,-24.112501
1782299377924,0.083749,-0.078963,11.524933,-0.30525,0.338808,-0.296714,-1.70625,17.212502,-24.112501
1782299377929,0.083749,-0.078963,11.524933,-0.30525,0.338808,-0.296714,-3.7875,15.750001,-23.362501
1782299377932,-0.212961,-0.167498,11.613468,-0.198349,0.399894,-0.271057,-3.7875,15.750001,-23.362501
1782299377939,-0.212961,-0.167498,11.613468,-0.198349,0.399894,-0.271057,-3.43125,16.200001,-25.481251
1782299377941,-0.212961,-0.167498,11.613468,-0.059683,0.429216,-0.245401,-3.43125,16.200001,-25.481251
1782299377942,-0.057428,-0.320638,11.204295,-0.059683,0.429216,-0.245401,-3.43125,16.200001,-25.481251
1782299377950,-0.12682,-0.382852,10.950655,0.07654,0.408446,-0.224632,-3.9375,16.35,-24.262501
1782299377966,-0.256032,-0.299103,10.646767,0.285456,0.35469,-0.208138,-2.60625,16.612501,-23.493752
1782299377967,-0.282353,-0.052642,9.957634,0.285456,0.35469,-0.208138,-2.60625,16.612501,-23.493752
1782299377968,-0.282353,-0.052642,9.957634,0.285456,0.35469,-0.208138,-3.65625,16.331251,-23.512501
1782299377976,-0.236889,0.191426,9.447963,0.33738,0.283219,-0.174541,-3.65625,16.331251,-23.512501
1782299377978,-0.236889,0.191426,9.447963,0.33738,0.283219,-0.174541,-2.7375,17.962502,-25.462502
1782299377984,-0.308674,0.337388,9.065112,0.33738,0.247178,-0.143997,-2.7375,17.962502,-25.462502
1782299377989,-0.308674,0.337388,9.065112,0.33738,0.247178,-0.143997,-6.05625,16.21875,-23.6625
1782299377993,-0.452243,0.437887,8.722938,0.298284,0.201974,-0.120785,-6.05625,16.21875,-23.6625
1782299377999,-0.452243,0.437887,8.722938,0.298284,0.201974,-0.120785,-2.86875,17.081251,-25.312502
1782299378001,-0.428315,0.57667,8.486048,0.223759,0.151272,-0.092685,-2.86875,17.081251,-25.312502
1782299378008,-0.428315,0.57667,8.486048,0.223759,0.151272,-0.092685,-2.83125,16.35,-25.331251
1782299378009,-0.433101,0.624527,8.469299,0.134572,0.069416,-0.073137,-2.83125,16.35,-25.331251
1782299378019,-0.356531,0.643669,8.665511,0.048441,-0.008163,-0.060309,-3.0,16.200001,-25.181252
1782299378026,-0.356531,0.643669,8.665511,-0.016311,-0.059476,-0.049924,-3.0,16.200001,-25.181252
1782299378027,-0.351745,0.617348,8.926328,-0.016311,-0.059476,-0.049924,-3.0,16.200001,-25.181252
1782299378028,-0.351745,0.617348,8.926328,-0.016311,-0.059476,-0.049924,-3.4875,16.5,-24.4125
1782299378035,-0.294317,0.586242,9.050755,-0.057239,-0.0833,-0.042594,-3.4875,16.5,-24.4125
1782299378038,-0.294317,0.586242,9.050755,-0.057239,-0.0833,-0.042594,-3.76875,16.200001,-24.4125
1782299378044,-0.217747,0.528814,9.08904,-0.075565,-0.095517,-0.038318,-3.76875,16.200001,-24.4125
1782299378050,-0.217747,0.528814,9.08904,-0.075565,-0.095517,-0.038318,-3.3,15.900001,-24.581251
1782299378053,-0.107677,0.433101,9.065112,-0.076176,-0.105902,-0.03954,-3.3,15.900001,-24.581251
1782299378067,0.004786,0.337388,9.077076,-0.074954,-0.124228,-0.04687,-3.01875,17.231251,-25.1625
1782299378068,0.004786,0.337388,9.077076,-0.074954,-0.124228,-0.04687,-2.86875,16.63125,-24.562502
1782299378070,0.105284,0.241675,9.120146,-0.080452,-0.144386,-0.056033,-2.86875,16.63125,-24.562502
1782299378080,0.179462,0.189033,9.194324,-0.099389,-0.155382,-0.068861,-1.96875,16.78125,-24.862501
1782299378087,0.251246,0.145962,9.311573,-0.128099,-0.169432,-0.082911,-1.96875,16.78125,-24.862501
1782299378088,0.251246,0.145962,9.311573,-0.128099,-0.169432,-0.082911,-4.5375,17.25,-24.862501
1782299378095,0.251246,0.145962,9.311573,-0.161697,-0.185925,-0.095739,-4.5375,17.25,-24.862501
1782299378096,0.270389,0.105284,9.433607,-0.161697,-0.185925,-0.095739,-4.5375,17.25,-24.862501
1782299378098,0.270389,0.105284,9.433607,-0.161697,-0.185925,-0.095739,-3.0375,17.53125,-24.862501
1782299378104,0.284746,0.035892,9.60589,-0.197127,-0.20364,-0.105513,-3.0375,17.53125,-24.862501
1782299378109,0.284746,0.035892,9.60589,-0.197127,-0.20364,-0.105513,-4.2375,16.200001,-24.112501
1782299378112,0.315853,-0.055035,9.751852,-0.232557,-0.219523,-0.106735,-4.2375,16.200001,-24.112501
1782299378118,0.315853,-0.055035,9.751852,-0.232557,-0.219523,-0.106735,-4.2375,16.200001,-24.112501
1782299378122,0.337388,-0.119641,9.897814,-0.261879,-0.219523,-0.10307,-4.2375,16.200001,-24.112501
1782299378129,0.337388,-0.119641,9.897814,-0.261879,-0.219523,-0.10307,-3.31875,16.650002,-25.012501
1782299378130,0.361316,-0.122034,10.048562,-0.269209,-0.204862,-0.091463,-3.31875,16.650002,-25.012501
1782299378140,0.361316,-0.090927,10.139489,-0.239888,-0.171264,-0.074359,-3.76875,16.5,-24.862501
1782299378147,0.361316,-0.090927,10.139489,-0.171471,-0.118119,-0.051757,-3.76875,16.5,-24.862501
1782299378148,0.289532,-0.040678,10.13231,-0.171471,-0.118119,-0.051757,-3.76875,16.5,-24.862501
1782299378156,0.16989,0.074178,9.938492,-0.068846,-0.050924,-0.024268,-3.76875,16.5,-24.862501
1782299378167,0.074178,0.232104,9.634603,0.045386,0.02238,0.005054,-3.61875,17.681252,-26.081251
1782299378169,0.074178,0.232104,9.634603,0.045386,0.02238,0.005054,-3.46875,16.800001,-25.1625
1782299378173,-0.01675,0.411565,9.213467,0.146179,0.092018,0.031932,-3.46875,16.800001,-25.1625
1782299378179,-0.01675,0.411565,9.213467,0.146179,0.092018,0.031932,-4.8,19.143751,-23.475
1782299378181,-0.112463,0.634098,8.816258,0.205433,0.139666,0.057588,-4.8,19.143751,-23.475
1782299378189,-0.112463,0.634098,8.816258,0.205433,0.139666,0.057588,-3.6375,17.681252,-25.312502
1782299378190,-0.193819,0.792024,8.493228,0.208487,0.162268,0.08019,-3.6375,17.681252,-25.312502
1782299378200,-0.236889,0.916451,8.222838,0.163283,0.148829,0.099127,-4.3875,18.13125,-25.762501
1782299378207,-0.246461,0.990629,8.134304,0.075319,0.090186,0.113787,-4.3875,18.13125,-25.762501
1782299378208,-0.246461,0.990629,8.134304,0.075319,0.090186,0.113787,-2.71875,17.231251,-25.1625
1782299378215,-0.246461,0.990629,8.134304,-0.028528,0.008941,0.12234,-2.71875,17.231251,-25.1625
1782299378216,-0.215354,1.036092,8.30898,-0.028528,0.008941,0.12234,-2.71875,17.231251,-25.1625
1782299378218,-0.215354,1.036092,8.30898,-0.028528,0.008941,0.12234,-3.0,17.231251,-25.931252
1782299378224,-0.193819,1.043271,8.624833,-0.117104,-0.043594,0.127226,-3.0,17.231251,-25.931252
1782299378229,-0.193819,1.043271,8.624833,-0.117104,-0.043594,0.127226,-3.28125,17.681252,-26.831251
1782299378233,-0.193819,1.026521,8.883257,-0.17086,-0.054589,0.132113,-3.28125,17.681252,-26.831251
1782299378239,-0.193819,1.026521,8.883257,-0.17086,-0.054589,0.132113,-4.65,18.450001,-27.13125
1782299378242,-0.227318,1.002593,9.036397,-0.187353,-0.045426,0.139444,-4.65,18.450001,-27.13125
1782299378249,-0.227318,1.002593,9.036397,-0.187353,-0.045426,0.139444,-3.28125,17.681252,-26.831251
1782299378250,-0.241675,0.98345,9.134504,-0.173303,-0.040539,0.144942,-3.28125,17.681252,-26.831251
1782299378260,-0.224925,0.947558,9.201502,-0.140317,-0.042372,0.151661,-2.7,16.78125,-25.1625
1782299378273,-0.196211,0.926022,9.292429,-0.097556,-0.028933,0.160824,-4.3875,18.13125,-25.762501
1782299378276,-0.165105,0.894916,9.383358,-0.052352,-0.000222,0.169987,-4.3875,18.13125,-25.762501
1782299378278,-0.165105,0.894916,9.383358,-0.052352,-0.000222,0.169987,-3.375,19.1625,-25.762501
1782299378284,-0.143569,0.856631,9.371393,-0.008981,0.034597,0.176707,-3.375,19.1625,-25.762501
1782299378289,-0.143569,0.856631,9.371393,-0.008981,0.034597,0.176707,-2.83125,18.13125,-27.13125
1782299378293,-0.081356,0.870987,9.340287,0.022173,0.053534,0.174263,-2.83125,18.13125,-27.13125
1782299378298,-0.081356,0.870987,9.340287,0.022173,0.053534,0.174263,-3.3375,18.13125,-25.762501
1782299378301,-0.023928,0.92363,9.357036,0.031947,0.05048,0.1651,-3.3375,18.13125,-25.762501
1782299378309,-0.023928,0.92363,9.357036,0.031947,0.05048,0.1651,-2.98125,16.200001,-25.481251
1782299378310,-0.004786,0.978664,9.376178,0.023395,0.031543,0.155937,-2.98125,16.200001,-25.481251
1782299378320,0.0,1.014557,9.407285,0.006291,0.016882,0.146774,-3.58125,18.431252,-27.581251
1782299378327,0.014357,1.024128,9.435999,-0.011424,0.010773,0.141276,-3.58125,18.431252,-27.581251
1782299378328,0.014357,1.024128,9.435999,-0.011424,0.010773,0.141276,-3.3,17.681252,-26.531252
1782299378335,0.014357,1.024128,9.435999,-0.017533,0.009552,0.138833,-3.3,17.681252,-26.531252
1782299378336,0.011964,1.031307,9.424035,-0.017533,0.009552,0.138833,-3.3,17.681252,-26.531252
1782299378339,0.011964,1.031307,9.424035,-0.017533,0.009552,0.138833,-2.1,19.59375,-27.88125
1782299378344,0.031107,1.052842,9.476677,-0.006537,0.021769,0.142498,-2.1,19.59375,-27.88125
1782299378349,0.031107,1.052842,9.476677,-0.006537,0.021769,0.142498,-2.8875,18.112501,-25.312502
1782299378353,0.055035,1.07677,9.534105,0.024006,0.043149,0.149218,-2.8875,18.112501,-25.312502
1782299378359,0.055035,1.07677,9.534105,0.024006,0.043149,0.149218,-3.6,17.681252,-26.531252
1782299378361,0.055035,1.07677,9.534105,0.069821,0.058421,0.156548,-3.6,17.681252,-26.531252
1782299378362,0.069392,1.115055,9.548461,0.069821,0.058421,0.156548,-3.6,17.681252,-26.531252
1782299378375,0.07657,1.189233,9.493427,0.11869,0.062697,0.165711,-2.85,17.681252,-26.531252
1782299378380,0.083749,1.268196,9.359429,0.165727,0.051091,0.176096,-2.4,18.262501,-26.981251
1782299378387,0.098106,1.366302,9.249359,0.198102,0.035819,0.184037,-2.4,18.262501,-26.981251
1782299378389,0.098106,1.366302,9.249359,0.198102,0.035819,0.184037,-3.43125,17.25,-26.681252
1782299378395,0.098106,1.366302,9.249359,0.208487,0.029099,0.190756,-3.43125,17.25,-26.681252
1782299378396,0.119641,1.447658,9.203895,0.208487,0.029099,0.190756,-3.43125,17.25,-26.681252
1782299378398,0.119641,1.447658,9.203895,0.208487,0.029099,0.190756,-2.55,18.862501,-27.581251
1782299378404,0.119641,1.447658,9.203895,0.193215,0.016271,0.197476,-2.55,18.862501,-27.581251
1782299378405,0.11007,1.538585,9.170396,0.193215,0.016271,0.197476,-2.55,18.862501,-27.581251
1782299378409,0.11007,1.538585,9.170396,0.193215,0.016271,0.197476,-2.86875,19.1625,-26.812502
1782299378413,0.095713,1.598405,9.132111,0.15412,-0.016715,0.204806,-2.86875,19.1625,-26.812502
1782299378418,0.095713,1.598405,9.132111,0.15412,-0.016715,0.204806,-2.6625,18.28125,-27.731251
1782299378421,0.052642,1.627119,9.208681,0.102807,-0.065585,0.21458,-2.6625,18.28125,-27.731251
1782299378429,0.052642,1.627119,9.208681,0.102807,-0.065585,0.21458,-2.025,17.681252,-28.35
1782299378430,0.052642,1.627119,9.208681,0.060047,-0.102237,0.224965,-2.025,17.681252,-28.35
1782299378431,0.055035,1.57687,9.409678,0.060047,-0.102237,0.224965,-2.025,17.681252,-28.35
1782299378440,0.055035,1.57687,9.409678,0.041721,-0.115065,0.232295,-2.53125,18.431252,-27.581251
1782299378441,0.09332,1.505085,9.692031,0.041721,-0.115065,0.232295,-2.53125,18.431252,-27.581251
1782299378448,0.129212,1.423729,9.938492,0.048441,-0.105902,0.233517,-3.8625,17.1,-26.831251
1782299378456,0.122034,1.368695,10.120347,0.074708,-0.088798,0.233517,-3.8625,17.1,-26.831251
1782299378459,0.122034,1.368695,10.120347,0.074708,-0.088798,0.233517,-2.0625,18.862501,-28.331251
1782299378464,0.153141,1.347159,10.218452,0.108916,-0.070472,0.231073,-2.0625,18.862501,-28.331251
1782299378475,0.18664,1.342373,10.314165,0.143735,-0.06253,0.227408,-2.38125,19.3125,-28.031252
1782299378478,0.18664,1.342373,10.314165,0.143735,-0.06253,0.227408,-2.8125,18.13125,-27.581251
1782299378481,0.18664,1.342373,10.314165,0.177333,-0.064363,0.220078,-2.8125,18.13125,-27.581251
1782299378482,0.198604,1.325624,10.393128,0.177333,-0.064363,0.220078,-2.8125,18.13125,-27.581251
1782299378488,0.198604,1.325624,10.393128,0.177333,-0.064363,0.220078,-2.6625,17.981251,-27.431252
1782299378490,0.239282,1.320838,10.42902,0.204211,-0.064363,0.210915,-2.6625,17.981251,-27.431252
1782299378500,0.248854,1.325624,10.445771,0.221926,-0.066196,0.199919,-2.5125,18.88125,-28.63125
1782299378507,0.248854,1.325624,10.445771,0.2317,-0.073526,0.188313,-2.5125,18.88125,-28.63125
1782299378508,0.270389,1.361516,10.49602,0.2317,-0.073526,0.188313,-2.9625,18.28125,-27.731251
1782299378516,0.270389,1.361516,10.49602,0.237809,-0.081467,0.178539,-2.9625,18.28125,-27.731251
1782299378517,0.272782,1.428515,10.488842,0.237809,-0.081467,0.178539,-2.9625,18.28125,-27.731251
1782299378518,0.272782,1.428515,10.488842,0.237809,-0.081467,0.178539,-3.28125,18.88125,-28.331251
1782299378525,0.301496,1.497907,10.52952,0.242085,-0.077802,0.168765,-3.28125,18.88125,-28.331251
1782299378529,0.301496,1.497907,10.52952,0.242085,-0.077802,0.168765,-1.29375,19.1625,-28.931252
1782299378533,0.342174,1.574477,10.601304,0.234143,-0.061309,0.162046,-1.29375,19.1625,-28.931252
1782299378539,0.342174,1.574477,10.601304,0.234143,-0.061309,0.162046,-1.3125,18.112501,-27.581251
1782299378541,0.368495,1.591227,10.704196,0.206044,-0.03382,0.162657,-1.3125,18.112501,-27.581251
1782299378548,0.368495,1.591227,10.704196,0.206044,-0.03382,0.162657,-1.725,17.681252,-28.35
1782299378550,0.33021,1.529014,10.895621,0.161451,-0.001444,0.168154,-1.725,17.681252,-28.35
1782299378560,0.232104,1.404587,11.211474,0.112581,0.026656,0.175485,-1.89375,17.53125,-27.431252
1782299378567,0.12682,1.320838,11.606289,0.082038,0.052923,0.183426,-1.89375,17.53125,-27.431252
1782299378568,0.12682,1.320838,11.606289,0.082038,0.052923,0.183426,-2.4375,16.668751,-28.668751
1782299378582,0.026321,1.294517,11.905392,0.086925,0.084077,0.191978,-1.25625,18.4125,-29.400002
1782299378584,0.026321,1.294517,11.905392,0.132129,0.118896,0.199919,-1.25625,18.4125,-29.400002
1782299378585,-0.102891,1.316052,11.974784,0.132129,0.118896,0.199919,-1.25625,18.4125,-29.400002
1782299378589,-0.102891,1.316052,11.974784,0.132129,0.118896,0.199919,-1.25625,18.4125,-29.400002
1782299378593,-0.205783,1.299303,11.819251,0.201157,0.143331,0.208471,-1.25625,18.4125,-29.400002
1782299378598,-0.205783,1.299303,11.819251,0.201157,0.143331,0.208471,-2.53125,20.19375,-28.931252
1782299378602,-0.342174,1.232304,11.501005,0.265298,0.154327,0.217634,-2.53125,20.19375,-28.931252
1782299378609,-0.342174,1.232304,11.501005,0.265298,0.154327,0.217634,-2.6625,19.012501,-28.481251
1782299378610,-0.461815,1.083949,11.261723,0.297673,0.152494,0.227408,-2.6625,19.012501,-28.481251
1782299378619,-0.552742,0.887737,11.079869,0.278126,0.134168,0.232906,-2.6625,19.012501,-28.481251
1782299378620,-0.552742,0.887737,11.079869,0.278126,0.134168,0.232906,-1.9875,18.13125,-29.700001
1782299378627,-0.552742,0.887737,11.079869,0.195659,0.094462,0.23535,-1.9875,18.13125,-29.700001
1782299378628,-0.602991,0.665205,10.926728,0.195659,0.094462,0.23535,-2.2875,18.300001,-30.31875
1782299378636,-0.677169,0.399601,10.811872,0.058825,0.016882,0.240847,-2.2875,18.300001,-30.31875
1782299378639,-0.677169,0.399601,10.811872,0.058825,0.016882,0.240847,-0.84375,18.993752,-28.781252
1782299378645,-0.734597,0.136391,10.847765,-0.10733,-0.082689,0.254897,-0.84375,18.993752,-28.781252
1782299378650,-0.734597,0.136391,10.847765,-0.10733,-0.082689,0.254897,-1.70625,19.1625,-30.450001
1782299378653,-0.646062,-0.124427,11.043976,-0.245385,-0.187758,0.269558,-1.70625,19.1625,-30.450001
1782299378659,-0.646062,-0.124427,11.043976,-0.245385,-0.187758,0.269558,-1.18125,16.368752,-29.718752
1782299378662,-0.634098,-0.531207,10.823836,-0.315024,-0.273279,0.286051,-1.18125,16.368752,-29.718752
1782299378668,-0.634098,-0.531207,10.823836,-0.315024,-0.273279,0.286051,-3.4125,18.731251,-28.800001
1782299378670,-0.370888,-0.315853,11.661324,-0.25577,-0.42233,0.32759,-3.4125,18.731251,-28.800001
1782299378684,-0.148355,-0.112463,11.718752,-0.12871,-0.356356,0.300712,-1.29375,18.112501,-28.35
1782299378688,-0.200997,-0.12682,11.156438,0.020341,-0.192645,0.279332,-1.29375,18.112501,-28.35
1782299378689,-0.200997,-0.12682,11.156438,0.020341,-0.192645,0.279332,-1.25625,19.1625,-30.450001
1782299378696,-0.346959,-0.210568,10.350057,0.149844,-0.096128,0.295214,-1.25625,19.1625,-30.450001
1782299378698,-0.346959,-0.210568,10.350057,0.149844,-0.096128,0.295214,-2.53125,18.75,-32.137501
1782299378705,-0.320638,-0.007178,9.763816,0.232922,-0.069861,0.330644,-2.53125,18.75,-32.137501
1782299378709,-0.320638,-0.007178,9.763816,0.232922,-0.069861,0.330644,-2.41875,18.150002,-30.468752
1782299378713,-0.334995,0.256032,9.431214,0.283013,-0.068028,0.353246,-2.41875,18.150002,-30.468752
1782299378719,-0.334995,0.256032,9.431214,0.283013,-0.068028,0.353246,-1.5,18.28125,-31.06875
1782299378722,-0.442672,0.27996,9.175182,0.303171,-0.080245,0.380124,-1.5,18.28125,-31.06875
1782299378728,-0.442672,0.27996,9.175182,0.303171,-0.080245,0.380124,-1.51875,17.25,-29.56875
1782299378730,-0.442672,0.27996,9.175182,0.2879,-0.105902,0.433881,-1.51875,17.25,-29.56875
1782299378731,-0.287139,0.397209,8.890436,0.2879,-0.105902,0.433881,-1.51875,17.25,-29.56875
1782299378740,-0.239282,0.658026,8.629618,0.233533,-0.149884,0.444876,-2.23125,18.75,-32.137501
1782299378749,-0.191426,0.882952,8.591333,0.155342,-0.190812,0.428994,-2.23125,18.75,-32.137501
1782299378750,-0.191426,0.882952,8.591333,0.155342,-0.190812,0.428994,-1.65,18.150002,-30.918751
1782299378756,-0.088534,0.949951,8.62244,0.071653,-0.211581,0.394785,-1.65,18.150002,-30.918751
1782299378760,-0.088534,0.949951,8.62244,0.071653,-0.211581,0.394785,-2.7,18.168751,-31.218752
1782299378765,-0.050249,0.866202,8.687046,-0.00104,-0.209138,0.353246,-2.7,18.168751,-31.218752
1782299378769,-0.050249,0.866202,8.687046,-0.00104,-0.209138,0.353246,-1.95,16.668751,-29.718752
1782299378773,0.107677,0.68674,8.68226,-0.060293,-0.185925,0.312319,-1.95,16.668751,-29.718752
1782299378783,0.150748,0.4666,8.754045,-0.106108,-0.158436,0.281775,-2.56875,18.300001,-30.618752
1782299378789,0.150748,0.4666,8.754045,-0.106108,-0.158436,0.281775,-2.23125,18.75,-32.137501
1782299378790,0.150748,0.4666,8.754045,-0.131154,-0.131558,0.268947,-2.23125,18.75,-32.137501
1782299378791,0.181855,0.464208,8.888043,-0.131154,-0.131558,0.268947,-2.23125,18.75,-32.137501
1782299378800,0.222533,0.614955,8.986148,-0.129932,-0.096128,0.257952,-2.25,17.56875,-30.618752
1782299378809,0.224925,0.677169,8.993327,-0.105497,-0.04115,0.238404,-2.41875,18.450001,-30.918751
1782299378816,0.212961,0.643669,8.916757,-0.070678,0.011384,0.221911,-2.41875,18.450001,-30.918751
1782299378818,0.212961,0.643669,8.916757,-0.070678,0.011384,0.221911,-3.3375,18.31875,-30.618752
1782299378825,0.258425,0.583849,8.766009,-0.048687,0.040706,0.20725,-3.3375,18.31875,-30.618752
1782299378829,0.258425,0.583849,8.766009,-0.048687,0.040706,0.20725,-1.2,18.13125,-30.918751
1782299378834,0.277567,0.48335,8.675082,-0.057239,0.039484,0.187702,-1.2,18.13125,-30.918751
1782299378839,0.277567,0.48335,8.675082,-0.057239,0.039484,0.187702,-2.41875,18.900002,-31.518751
1782299378842,0.267996,0.363709,8.725331,-0.101221,0.015049,0.163267,-2.41875,18.900002,-31.518751
1782299378848,0.267996,0.363709,8.725331,-0.101221,0.015049,0.163267,-1.95,19.181252,-31.968752
1782299378851,0.277567,0.263211,8.94547,-0.17086,-0.025268,0.138833,-1.95,19.181252,-31.968752
1782299378860,0.275175,0.229711,9.239788,-0.247218,-0.058254,0.119285,-0.5625,18.431252,-32.287502
1782299378869,0.320638,0.222533,9.416856,-0.304639,-0.069861,0.102792,-0.5625,18.431252,-32.287502
1782299378870,0.320638,0.222533,9.416856,-0.304639,-0.069861,0.102792,-2.26875,18.75,-31.368752
1782299378884,0.361316,0.282353,9.469499,-0.321133,-0.056422,0.086299,-1.05,19.03125,-31.81875
1782299378885,0.404387,0.404387,9.517355,-0.292422,-0.012439,0.069194,-1.05,19.03125,-31.81875
1782299378889,0.404387,0.404387,9.517355,-0.292422,-0.012439,0.069194,-1.55625,19.3125,-30.6
1782299378893,0.521635,0.540778,9.297216,-0.23439,0.066973,0.049647,-1.55625,19.3125,-30.6
1782299378900,0.521635,0.540778,9.297216,-0.23439,0.066973,0.049647,-0.91875,19.1625,-31.218752
1782299378902,0.545564,0.658026,8.988541,-0.16414,0.138444,0.032542,-0.91875,19.1625,-31.218752
1782299378909,0.545564,0.658026,8.988541,-0.16414,0.138444,0.032542,-3.09375,18.1875,-33.056252
1782299378910,0.545564,0.658026,8.988541,-0.097556,0.183037,0.018493,-3.09375,18.1875,-33.056252
1782299378911,0.509671,0.851845,8.655939,-0.097556,0.183037,0.018493,-3.09375,18.1875,-33.056252
1782299378920,0.468993,0.990629,8.433406,-0.052963,0.205639,-0.001666,-3.1875,18.900002,-31.218752
1782299378929,0.411565,1.028914,8.320943,-0.027918,0.200142,-0.027933,-1.0875,19.3125,-31.06875
1782299378936,0.495314,1.019342,8.411871,-0.021809,0.172653,-0.063363,-1.0875,19.3125,-31.06875
1782299378939,0.495314,1.019342,8.411871,-0.021809,0.172653,-0.063363,-0.54375,18.450001,-33.037502
1782299378945,0.476172,1.028914,8.600904,-0.034026,0.133557,-0.10368,-0.54375,18.450001,-33.037502
1782299378950,0.476172,1.028914,8.600904,-0.034026,0.133557,-0.10368,-1.05,19.331251,-32.118752
1782299378953,0.476172,1.028914,8.600904,-0.05113,0.096295,-0.145219,-1.05,19.331251,-32.118752
1782299378954,0.351745,0.9667,8.699009,-0.05113,0.096295,-0.145219,-1.05,19.331251,-32.118752
1782299378959,0.351745,0.9667,8.699009,-0.05113,0.096295,-0.145219,-0.6,19.1625,-31.518751
1782299378962,0.291924,0.959522,8.943078,-0.070678,0.048036,-0.162934,-0.6,19.1625,-31.518751
1782299378968,0.291924,0.959522,8.943078,-0.070678,0.048036,-0.162934,-1.2,18.88125,-31.518751
1782299378970,0.291924,0.959522,8.943078,-0.09328,0.016882,-0.180039,-1.2,18.88125,-31.518751
1782299378971,0.222533,1.098306,8.933507,-0.09328,0.016882,-0.180039,-1.2,18.88125,-31.518751
1782299378984,0.16989,1.045663,8.895221,-0.104276,-0.039317,-0.205084,-0.61875,20.212502,-32.268753
1782299378990,0.18664,0.90688,8.940685,-0.10733,-0.057643,-0.227075,-3.15,17.418751,-30.937502
1782299378996,0.18664,0.90688,8.940685,-0.093891,-0.031376,-0.239903,-3.15,17.418751,-30.937502
1782299378997,0.210568,0.830309,8.995719,-0.093891,-0.031376,-0.239903,-3.15,17.418751,-30.937502
1782299378998,0.210568,0.830309,8.995719,-0.093891,-0.031376,-0.239903,-2.90625,19.050001,-30.618752
1782299379005,0.196211,0.861416,9.10579,-0.056017,0.019936,-0.246623,-2.90625,19.050001,-30.618752
1782299379009,0.196211,0.861416,9.10579,-0.056017,0.019936,-0.246623,-2.55,20.081251,-32.868752
1782299379014,0.165105,0.899701,9.153646,-0.003483,0.076747,-0.250288,-2.55,20.081251,-32.868752
1782299379019,0.165105,0.899701,9.153646,-0.003483,0.076747,-0.250288,-2.38125,18.900002,-32.737503
1782299379022,0.07657,0.918844,9.156039,0.04783,0.109123,-0.250288,-2.38125,18.900002,-32.737503
1782299379028,0.07657,0.918844,9.156039,0.04783,0.109123,-0.250288,-0.84375,18.88125,-33.037502
1782299379030,0.07657,0.918844,9.156039,0.086314,0.117064,-0.247234,-0.84375,18.88125,-33.037502
1782299379031,-0.023928,0.945165,9.151253,0.086314,0.117064,-0.247234,-0.84375,18.88125,-33.037502
1782299379041,-0.217747,1.122234,9.19911,0.114414,0.11401,-0.244179,-3.6,19.368752,-32.887501
1782299379050,-0.392423,1.246661,9.218253,0.143125,0.11401,-0.241125,-1.6125,18.900002,-33.037502
1782299379056,-0.392423,1.246661,9.218253,0.162061,0.092629,-0.238682,-1.6125,18.900002,-33.037502
1782299379057,-0.153141,1.17009,9.077076,0.162061,0.092629,-0.238682,-1.6125,18.900002,-33.037502
1782299379059,-0.153141,1.17009,9.077076,0.162061,0.092629,-0.238682,-1.6125,18.900002,-33.037502
1782299379065,-0.153141,1.17009,9.077076,0.156564,0.035208,-0.252121,-1.6125,18.900002,-33.037502
1782299379066,-0.066999,1.189233,9.002899,0.156564,0.035208,-0.252121,-1.6125,18.900002,-33.037502
1782299379069,-0.066999,1.189233,9.002899,0.156564,0.035208,-0.252121,-1.89375,18.900002,-33.487503
1782299379073,-0.066999,1.189233,9.002899,0.127853,-0.042983,-0.262505,-1.89375,18.900002,-33.487503
1782299379074,-0.062213,1.31366,8.952649,0.127853,-0.042983,-0.262505,-1.89375,18.900002,-33.487503
1782299379083,-0.014357,1.423729,8.859329,0.093034,-0.113843,-0.261894,-1.7625,18.75,-32.887501
1782299379089,-0.014357,1.423729,8.859329,0.093034,-0.113843,-0.261894,-1.7625,18.75,-32.887501
1782299379091,0.002393,1.485943,8.806687,0.069821,-0.170653,-0.262505,-1.7625,18.75,-32.887501
1782299379100,-0.095713,1.526621,8.9024,0.066156,-0.203029,-0.262505,-0.28125,20.0625,-33.1875
1782299379109,-0.095713,1.526621,8.9024,0.077151,-0.218301,-0.254564,-0.28125,20.0625,-33.1875
1782299379110,-0.122034,1.591227,8.995719,0.077151,-0.218301,-0.254564,-1.63125,19.181252,-32.737503
1782299379117,-0.112463,1.698904,9.103397,0.085092,-0.232351,-0.254564,-1.63125,19.181252,-32.737503
1782299379118,-0.112463,1.698904,9.103397,0.085092,-0.232351,-0.254564,-0.50625,18.450001,-33.806252
1782299379125,-0.112463,1.698904,9.103397,0.082649,-0.237238,-0.263116,-0.50625,18.450001,-33.806252
1782299379126,-0.129212,1.770689,9.16561,0.082649,-0.237238,-0.263116,-0.50625,18.450001,-33.806252
1782299379129,-0.129212,1.770689,9.16561,0.082649,-0.237238,-0.263116,-1.2,19.63125,-32.268753
1782299379134,-0.009571,1.777867,9.447963,0.072875,-0.232962,-0.277777,-1.2,19.63125,-32.268753
1782299379139,-0.009571,1.777867,9.447963,0.072875,-0.232962,-0.277777,-1.425,19.050001,-34.40625
1782299379142,-0.047856,1.792224,9.658532,0.058214,-0.18959,-0.291827,-1.425,19.050001,-34.40625
1782299379148,-0.047856,1.792224,9.658532,0.058214,-0.18959,-0.291827,-1.65,19.181252,-31.968752
1782299379151,-0.069392,1.74676,9.861922,0.047219,-0.143164,-0.312596,-1.65,19.181252,-31.968752
1782299379159,-0.069392,1.74676,9.861922,0.047219,-0.143164,-0.312596,-2.85,19.800001,-32.887501
1782299379160,-0.035892,1.68694,10.07249,0.037445,-0.115065,-0.335809,-2.85,19.800001,-32.887501
1782299379169,-0.035892,1.68694,10.07249,0.026449,-0.088187,-0.344972,-2.85,19.800001,-32.887501
1782299379170,0.150748,1.622334,10.218452,0.026449,-0.088187,-0.344972,-1.575,18.450001,-33.506252
1782299379177,0.437887,1.655833,10.304594,0.022173,-0.063141,-0.344972,-1.575,18.450001,-33.506252
1782299379178,0.437887,1.655833,10.304594,0.022173,-0.063141,-0.344972,-1.18125,18.88125,-31.968752
1782299379190,0.62692,1.68694,10.464913,0.028282,-0.018548,-0.35047,-2.68125,19.950001,-33.487503
1782299379194,0.363709,1.634298,10.598911,0.040499,0.030932,-0.359022,-2.68125,19.950001,-33.487503
1782299379199,0.363709,1.634298,10.598911,0.040499,0.030932,-0.359022,-2.86875,19.35,-32.118752
1782299379202,0.224925,1.545763,10.66591,0.052106,0.054145,-0.363909,-2.86875,19.35,-32.118752
1782299379208,0.224925,1.545763,10.66591,0.052106,0.054145,-0.363909,-1.9125,20.231251,-34.537502
1782299379211,0.210568,1.4668,10.883657,0.049662,0.046204,-0.384067,-1.9125,20.231251,-34.537502
1782299379219,0.210568,1.4668,10.883657,0.049662,0.046204,-0.384067,-1.8375,18.46875,-34.856251
1782299379220,0.200997,1.354338,11.189938,0.044775,0.038873,-0.402393,-1.8375,18.46875,-34.856251
1782299379229,0.200997,1.354338,11.189938,0.058214,0.044982,-0.410945,-1.8375,18.46875,-34.856251
1782299379230,0.162712,1.368695,11.434006,0.058214,0.044982,-0.410945,-0.675,18.300001,-33.206253
1782299379237,0.064606,1.45005,11.496219,0.102807,0.052923,-0.410945,-0.675,18.300001,-33.206253
1782299379239,0.064606,1.45005,11.496219,0.102807,0.052923,-0.410945,-1.74375,19.800001,-34.387501
1782299379245,0.023928,1.540978,11.481863,0.173668,0.056588,-0.403615,-1.74375,19.800001,-34.387501
1782299379248,0.023928,1.540978,11.481863,0.173668,0.056588,-0.403615,-0.54375,19.63125,-33.787502
1782299379254,0.043071,1.579263,11.426828,0.257967,0.059032,-0.397506,-0.54375,19.63125,-33.787502
1782299379260,0.043071,1.579263,11.426828,0.257967,0.059032,-0.397506,-1.875,18.900002,-34.106251
1782299379263,0.040678,1.598405,11.321543,0.33066,0.069416,-0.389565,-1.875,18.900002,-34.106251
1782299379269,0.040678,1.598405,11.321543,0.33066,0.069416,-0.389565,-1.575,19.950001,-34.856251
1782299379271,0.081356,1.643869,11.110975,0.366701,0.082245,-0.37918,-1.575,19.950001,-34.856251
1782299379278,0.081356,1.643869,11.110975,0.366701,0.082245,-0.37918,-0.65625,19.35,-35.006252
1782299379280,0.160319,1.713261,10.986548,0.350819,0.077358,-0.374294,-0.65625,19.35,-35.006252
1782299379290,0.311067,1.79701,10.938692,0.301339,0.058421,-0.376737,-0.16875,18.300001,-34.706253
1782299379297,0.495314,1.751546,10.94587,0.226813,0.048036,-0.388954,-0.16875,18.300001,-34.706253
1782299379299,0.495314,1.751546,10.94587,0.226813,0.048036,-0.388954,-1.10625,19.650002,-35.306252
1782299379305,0.495314,1.751546,10.94587,0.137627,0.055977,-0.408502,-1.10625,19.650002,-35.306252
1782299379306,0.619741,1.507478,11.020048,0.137627,0.055977,-0.408502,-1.10625,19.650002,-35.306252
1782299379308,0.619741,1.507478,11.020048,0.137627,0.055977,-0.408502,-2.175,19.35,-34.40625
1782299379314,0.739382,1.232304,11.07269,0.028282,0.071249,-0.429882,-2.175,19.35,-34.40625
1782299379319,0.739382,1.232304,11.07269,0.028282,0.071249,-0.429882,-1.5375,19.21875,-35.625
1782299379322,0.739382,1.232304,11.07269,-0.099389,0.066362,-0.465312,-1.5375,19.21875,-35.625
1782299379323,0.691526,0.70349,11.326329,-0.099389,0.066362,-0.465312,-1.5375,19.21875,-35.625
1782299379329,0.691526,0.70349,11.326329,-0.099389,0.066362,-0.465312,-0.675,19.03125,-33.956253
1782299379331,0.684347,0.277567,11.826429,-0.231946,0.038873,-0.49219,-0.675,19.03125,-33.956253
1782299379339,0.684347,0.277567,11.826429,-0.341291,0.011384,-0.530064,-2.475,19.06875,-34.40625
1782299379340,0.710668,-0.045464,12.494027,-0.341291,0.011384,-0.530064,-2.475,19.06875,-34.40625
1782299379349,0.710668,-0.045464,12.494027,-0.393826,0.010163,-0.570992,-2.475,19.06875,-34.40625
1782299379350,0.825524,-0.239282,12.876878,-0.393826,0.010163,-0.570992,-0.15,17.268751,-34.425003
1782299379356,0.825524,-0.239282,12.876878,-0.355952,0.007719,-0.60459,-0.15,17.268751,-34.425003
1782299379357,0.894916,-0.401994,12.740488,-0.355952,0.007719,-0.60459,-0.15,17.268751,-34.425003
1782299379358,0.894916,-0.401994,12.740488,-0.355952,0.007719,-0.60459,-1.85625,18.46875,-34.556252
1782299379366,0.801596,-0.5001,12.173388,-0.240499,0.000389,-0.622305,-1.85625,18.46875,-34.556252
1782299379368,0.801596,-0.5001,12.173388,-0.240499,0.000389,-0.622305,-1.18125,20.231251,-33.787502
1782299379376,0.997807,-0.425922,11.553648,-0.078619,-0.008163,-0.633911,-1.18125,20.231251,-33.787502
1782299379379,0.997807,-0.425922,11.553648,-0.078619,-0.008163,-0.633911,-2.1375,19.06875,-35.475002
1782299379389,0.961915,-0.301496,10.88605,0.079595,0.009552,-0.638187,-0.525,18.150002,-33.037502
1782299379391,0.732204,-0.12682,10.149061,0.195048,0.05781,-0.6333,-0.525,18.150002,-33.037502
1782299379398,0.732204,-0.12682,10.149061,0.195048,0.05781,-0.6333,-0.05625,18.88125,-34.556252
1782299379400,0.495314,0.043071,9.457534,0.228035,0.115231,-0.616196,-0.05625,18.88125,-34.556252
1782299379409,0.495314,0.043071,9.457534,0.166948,0.168377,-0.588096,-0.05625,18.88125,-34.556252
1782299379410,0.265603,0.117248,8.950256,0.166948,0.168377,-0.588096,-0.13125,18.31875,-36.225002
1782299379417,0.098106,0.160319,8.531512,0.033169,0.189146,-0.550833,-0.13125,18.31875,-36.225002
1782299379418,0.098106,0.160319,8.531512,0.033169,0.189146,-0.550833,-1.3125,18.0375,-36.543751
1782299379425,0.098106,0.160319,8.531512,-0.148869,0.174485,-0.517847,-1.3125,18.0375,-36.543751
1782299379426,0.01675,0.208176,8.364015,-0.148869,0.174485,-0.517847,-1.3125,18.0375,-36.543751
1782299379428,0.01675,0.208176,8.364015,-0.148869,0.174485,-0.517847,0.01875,17.71875,-35.625
1782299379434,0.136391,0.22014,8.62244,-0.322965,0.12867,-0.495856,0.01875,17.71875,-35.625
1782299379440,0.136391,0.22014,8.62244,-0.322965,0.12867,-0.495856,-0.84375,17.2875,-36.243752
1782299379443,0.327817,0.122034,9.187146,-0.43903,0.106068,-0.482417,-0.84375,17.2875,-36.243752
1782299379448,0.327817,0.122034,9.187146,-0.43903,0.106068,-0.482417,-1.35,18.0375,-35.775002
1782299379451,0.42353,-0.0335,9.952849,-0.456134,0.123173,-0.467756,-1.35,18.0375,-35.775002
1782299379459,0.42353,-0.0335,9.952849,-0.456134,0.123173,-0.467756,0.15,17.56875,-34.725002
1782299379460,0.440279,-0.167498,10.395521,-0.352287,0.180594,-0.457371,0.15,17.56875,-34.725002
1782299379469,0.440279,-0.167498,10.395521,-0.352287,0.180594,-0.457371,0.15,18.75,-35.775002
1782299379470,0.303888,-0.251246,10.170596,-0.177579,0.239848,-0.44943,0.15,18.75,-35.775002
1782299379477,0.282353,-0.229711,9.684853,-0.011424,0.250232,-0.44271,0.15,18.75,-35.775002
1782299379478,0.282353,-0.229711,9.684853,-0.011424,0.250232,-0.44271,-0.1875,19.35,-35.456253
1782299379485,0.282353,-0.229711,9.684853,0.101586,0.193422,-0.450041,-0.1875,19.35,-35.456253
1782299379486,0.210568,-0.081356,9.383358,0.101586,0.193422,-0.450041,-0.1875,19.35,-35.456253
1782299379488,0.210568,-0.081356,9.383358,0.101586,0.193422,-0.450041,-0.16875,17.268751,-33.956253
1782299379498,0.337388,0.004786,9.122539,0.153509,0.131725,-0.452484,-0.16875,17.268751,-33.956253
1782299379499,0.337388,0.004786,9.122539,0.153509,0.131725,-0.452484,-0.58125,17.2875,-35.025002
1782299379503,0.48335,0.031107,8.864114,0.15412,0.066973,-0.445154,-0.58125,17.2875,-35.025002
1782299379509,0.48335,0.031107,8.864114,0.15412,0.066973,-0.445154,-1.03125,17.4375,-35.325001
1782299379511,0.579063,0.071785,8.639189,0.107084,0.013217,-0.44271,-1.03125,17.4375,-35.325001
1782299379518,0.579063,0.071785,8.639189,0.107084,0.013217,-0.44271,-0.525,16.25625,-35.793751
1782299379520,0.689133,0.11007,8.457335,0.025228,-0.044815,-0.446376,-0.525,16.25625,-35.793751
1782299379529,0.689133,0.11007,8.457335,-0.078008,-0.115676,-0.448819,-0.525,16.25625,-35.793751
1782299379530,0.768096,0.167498,8.459728,-0.078008,-0.115676,-0.448819,1.1625,15.356251,-36.112503
1782299379537,0.732204,0.210568,8.634404,-0.173303,-0.179206,-0.445154,1.1625,15.356251,-36.112503
1782299379539,0.732204,0.210568,8.634404,-0.173303,-0.179206,-0.445154,1.1625,15.356251,-36.112503
1782299379546,0.689133,0.236889,8.804294,-0.230725,-0.214636,-0.440878,1.1625,15.356251,-36.112503
1782299379548,0.689133,0.236889,8.804294,-0.230725,-0.214636,-0.440878,-0.825,16.856251,-36.543751
1782299379554,0.619741,0.253639,9.01247,-0.236222,-0.209138,-0.438434,-0.825,16.856251,-36.543751
1782299379560,0.619741,0.253639,9.01247,-0.236222,-0.209138,-0.438434,-0.825,16.856251,-36.543751
1782299379563,0.550349,0.265603,9.000506,-0.191629,-0.173097,-0.434769,-0.825,16.856251,-36.543751
1782299379569,0.550349,0.265603,9.000506,-0.191629,-0.173097,-0.434769,-0.73125,17.137501,-35.325001
1782299379571,0.538385,0.289532,8.77558,-0.124434,-0.140721,-0.42805,-0.73125,17.137501,-35.325001
1782299379578,0.538385,0.289532,8.77558,-0.124434,-0.140721,-0.42805,-0.95625,14.925,-35.362503
1782299379580,0.562313,0.370888,8.569797,-0.070678,-0.129115,-0.427439,-0.95625,14.925,-35.362503
1782299379590,0.562313,0.370888,8.569797,-0.046244,-0.138888,-0.426828,-0.54375,17.2875,-36.243752
1782299379600,0.61017,0.425922,8.545869,-0.05052,-0.150495,-0.415221,-2.55,17.75625,-35.625
1782299379606,0.579063,0.504886,8.653546,-0.074343,-0.156604,-0.404837,-2.55,17.75625,-35.625
1782299379608,0.579063,0.504886,8.653546,-0.074343,-0.156604,-0.404837,-1.2375,14.343751,-35.512501
1782299379614,0.595813,0.538385,8.744473,-0.10733,-0.159047,-0.386511,-1.2375,14.343751,-35.512501
1782299379619,0.595813,0.538385,8.744473,-0.10733,-0.159047,-0.386511,-1.70625,15.975,-36.412502
1782299379623,0.605384,0.502493,8.780365,-0.145204,-0.141332,-0.367574,-1.70625,15.975,-36.412502
1782299379628,0.605384,0.502493,8.780365,-0.145204,-0.141332,-0.367574,-0.375,14.925,-34.893753
1782299379631,0.614955,0.473779,8.859329,-0.17086,-0.117508,-0.343139,-0.375,14.925,-34.893753
1782299379638,0.614955,0.473779,8.859329,-0.17086,-0.117508,-0.343139,-2.25,15.1125,-37.331253
1782299379640,0.665205,0.492921,8.981363,-0.176358,-0.075969,-0.316261,-2.25,15.1125,-37.331253
1782299379649,0.665205,0.492921,8.981363,-0.159253,-0.029544,-0.291827,-2.25,15.1125,-37.331253
1782299379650,0.725025,0.524028,9.127326,-0.159253,-0.029544,-0.291827,-1.40625,15.975,-36.412502
1782299379658,0.792024,0.514457,9.230217,-0.129321,0.008941,-0.274112,-1.575,15.075001,-35.043751
1782299379666,0.803988,0.5001,9.290037,-0.099389,0.019936,-0.262505,-1.575,15.075001,-35.043751
1782299379668,0.803988,0.5001,9.290037,-0.099389,0.019936,-0.262505,-1.55625,15.825001,-36.5625
1782299379675,0.784846,0.502493,9.316358,-0.069456,-0.006942,-0.253953,-1.55625,15.825001,-36.5625
1782299379680,0.784846,0.502493,9.316358,-0.069456,-0.006942,-0.253953,-2.19375,16.425001,-35.643753
1782299379683,0.717847,0.538385,9.340287,-0.051741,-0.04115,-0.246623,-2.19375,16.425001,-35.643753
1782299379689,0.717847,0.538385,9.340287,-0.051741,-0.04115,-0.246623,-2.53125,14.08125,-37.331253
1782299379691,0.717847,0.538385,9.340287,-0.049298,-0.080245,-0.24479,-2.53125,14.08125,-37.331253
1782299379692,0.612563,0.622134,9.395321,-0.049298,-0.080245,-0.24479,-2.53125,14.08125,-37.331253
1782299379698,0.612563,0.622134,9.395321,-0.049298,-0.080245,-0.24479,-4.0875,15.13125,-36.5625
1782299379709,0.526421,0.672383,9.483856,-0.057239,-0.136445,-0.243568,-4.0875,15.13125,-36.5625
1782299379710,0.524028,0.705883,9.502998,-0.076787,-0.205473,-0.241736,-3.75,14.1,-37.03125
1782299379718,0.59342,0.691526,9.498212,-0.101832,-0.279387,-0.242958,-3.975,14.231251,-34.912502
1782299379726,0.691526,0.660419,9.546069,-0.117715,-0.346582,-0.249677,-3.975,14.231251,-34.912502
1782299379728,0.691526,0.660419,9.546069,-0.117715,-0.346582,-0.249677,-4.51875,14.85,-37.03125
1782299379734,0.739382,0.607777,9.608283,-0.112828,-0.386289,-0.250899,-4.51875,14.85,-37.03125
1782299379740,0.739382,0.607777,9.608283,-0.112828,-0.386289,-0.250899,-2.79375,13.500001,-37.950001
1782299379743,0.849452,0.583849,9.579568,-0.087171,-0.38018,-0.246623,-2.79375,13.500001,-37.950001
1782299379748,0.849452,0.583849,9.579568,-0.087171,-0.38018,-0.246623,-4.06875,15.13125,-37.331253
1782299379751,0.849452,0.583849,9.579568,-0.049909,-0.341696,-0.247234,-4.06875,15.13125,-37.331253
1782299379752,1.009771,0.643669,9.414464,-0.049909,-0.341696,-0.247234,-4.06875,15.13125,-37.331253
1782299379758,1.009771,0.643669,9.414464,-0.049909,-0.341696,-0.247234,-5.75625,14.250001,-35.662502
1782299379760,1.136591,0.717847,9.172789,-0.010813,-0.290994,-0.25151,-5.75625,14.250001,-35.662502
1782299379769,1.136591,0.717847,9.172789,0.028893,-0.236016,-0.250899,-5.75625,14.250001,-35.662502
1782299379770,1.201197,0.803988,8.995719,0.028893,-0.236016,-0.250899,-6.50625,13.968751,-35.662502
1782299379784,1.215554,0.92363,8.976577,0.06188,-0.18226,-0.248455,-4.05,14.400001,-37.03125
1782299379786,1.167697,1.021735,8.974185,0.072264,-0.143775,-0.249677,-4.05,14.400001,-37.03125
1782299379789,1.167697,1.021735,8.974185,0.072264,-0.143775,-0.249677,-4.125,15.1125,-35.8125
1782299379794,1.167697,1.021735,8.974185,0.052106,-0.156604,-0.260673,-4.125,15.1125,-35.8125
1782299379797,1.115055,1.071985,9.026826,0.052106,-0.156604,-0.260673,-4.125,15.1125,-35.8125
1782299379807,1.038485,1.057628,9.184753,0.000793,-0.207305,-0.283275,-5.75625,15.750001,-37.162502
1782299379808,1.038485,1.057628,9.184753,0.000793,-0.207305,-0.283275,-4.51875,15.13125,-37.331253
1782299379812,0.933201,1.088734,9.428821,-0.058461,-0.289161,-0.313818,-4.51875,15.13125,-37.331253
1782299379818,0.933201,1.088734,9.428821,-0.058461,-0.289161,-0.313818,-3.80625,15.1125,-36.262501
1782299379820,0.847059,1.155733,9.675281,-0.098167,-0.3869,-0.349859,-3.80625,15.1125,-36.262501
1782299379829,0.753739,1.129412,9.876278,-0.097556,-0.456538,-0.381013,-5.6625,15.58125,-35.493752
1782299379837,0.732204,1.213161,9.912171,-0.049298,-0.469977,-0.398117,-5.6625,15.58125,-35.493752
1782299379838,0.732204,1.213161,9.912171,-0.049298,-0.469977,-0.398117,-6.65625,15.900001,-37.631252
1782299379846,0.727418,1.383052,9.735102,0.031947,-0.430882,-0.404226,-6.65625,15.900001,-37.631252
1782299379848,0.727418,1.383052,9.735102,0.031947,-0.430882,-0.404226,-7.36875,14.437501,-37.331253
1782299379855,0.772882,1.572084,9.541283,0.110749,-0.350859,-0.398728,-7.36875,14.437501,-37.331253
1782299379860,0.772882,1.572084,9.541283,0.110749,-0.350859,-0.398728,-7.425,15.168751,-36.5625
1782299379863,0.849452,1.713261,9.407285,0.16084,-0.270835,-0.383456,-7.425,15.168751,-36.5625
1782299379868,0.849452,1.713261,9.407285,0.16084,-0.270835,-0.383456,-5.71875,14.26875,-36.731251
1782299379872,0.911665,1.844866,9.404892,0.177944,-0.21769,-0.366352,-5.71875,14.26875,-36.731251
1782299379878,0.911665,1.844866,9.404892,0.177944,-0.21769,-0.366352,-5.90625,15.150001,-36.5625
1782299379880,0.911665,1.844866,9.404892,0.151066,-0.170043,-0.351692,-5.90625,15.150001,-36.5625
1782299379881,0.926022,1.85683,9.46232,0.151066,-0.170043,-0.351692,-5.90625,15.150001,-36.5625
1782299379889,0.926022,1.85683,9.46232,0.086925,-0.116897,-0.337031,-5.90625,15.150001,-36.5625
1782299379890,0.875773,1.811367,9.636997,0.086925,-0.116897,-0.337031,-6.76875,14.2875,-37.181252
1782299379899,0.672383,1.804188,9.916956,0.020341,-0.09063,-0.327868,-7.14375,15.900001,-36.262501
1782299379906,0.416351,1.804188,10.189739,-0.02242,-0.089408,-0.320537,-7.14375,15.900001,-36.262501
1782299379917,0.229711,1.749153,10.333308,-0.032194,-0.082078,-0.31565,-8.175,15.918751,-37.012501
1782299379920,0.229711,1.749153,10.333308,-0.032194,-0.082078,-0.31565,-7.875,15.168751,-36.5625
1782299379923,0.114855,1.624727,10.366807,-0.013868,-0.058865,-0.318705,-7.875,15.168751,-36.5625
1782299379929,0.114855,1.624727,10.366807,-0.013868,-0.058865,-0.318705,-7.81875,15.187501,-38.381252
1782299379932,0.129212,1.543371,10.295023,0.022784,-0.024046,-0.326646,-7.81875,15.187501,-38.381252
1782299379939,0.129212,1.543371,10.295023,0.022784,-0.024046,-0.326646,-8.212501,14.325001,-39.300003
1782299379941,0.217747,1.567299,10.163417,0.06188,0.011384,-0.327868,-8.212501,14.325001,-39.300003
1782299379949,0.217747,1.567299,10.163417,0.06188,0.011384,-0.327868,-8.38125,15.76875,-35.34375
1782299379950,0.208176,1.679762,10.024634,0.091201,0.051091,-0.326646,-8.38125,15.76875,-35.34375
1782299379959,0.162712,1.713261,9.938492,0.100364,0.082855,-0.311985,-7.2,15.76875,-38.981251
1782299379966,0.174676,1.710868,10.031812,0.085703,0.091408,-0.270447,-7.2,15.76875,-38.981251
1782299379968,0.174676,1.710868,10.031812,0.085703,0.091408,-0.270447,-8.887501,16.6875,-39.131252
1782299379975,0.320638,1.765903,10.223238,0.049662,0.081634,-0.217912,-8.887501,16.6875,-39.131252
1782299379980,0.320638,1.765903,10.223238,0.049662,0.081634,-0.217912,-8.1,14.156251,-37.631252
1782299379983,0.315853,1.866402,10.563018,0.010567,0.063919,-0.171486,-8.1,14.156251,-37.631252
1782299379989,0.315853,1.866402,10.563018,0.010567,0.063919,-0.171486,-8.925,16.368752,-38.081253
1782299379992,0.648455,1.737189,10.701803,-0.014479,0.055977,-0.120785,-8.925,16.368752,-38.081253
1782299379998,0.648455,1.737189,10.701803,-0.014479,0.055977,-0.120785,-7.9875,14.2875,-36.731251
1782299380000,0.648455,1.737189,10.701803,-0.019976,0.060864,-0.070083,-7.9875,14.2875,-36.731251
1782299380001,0.68674,1.682154,10.931513,-0.019976,0.060864,-0.070083,-7.9875,14.2875,-36.731251
1782299380017,0.478565,1.765903,11.003298,0.000182,0.084688,-0.02549,-8.981251,13.575001,-38.25
1782299380020,0.246461,1.804188,11.048762,0.047219,0.103014,0.017271,-8.981251,13.575001,-38.25
1782299380026,0.246461,1.804188,11.048762,0.103418,0.095684,0.060031,-8.981251,13.575001,-38.25
1782299380027,0.074178,1.720439,11.16601,0.103418,0.095684,0.060031,-8.981251,13.575001,-38.25
1782299380028,0.074178,1.720439,11.16601,0.103418,0.095684,0.060031,-7.96875,16.518751,-39.28125
1782299380035,-0.026321,1.636691,11.355043,0.151066,0.066362,0.093629,-7.96875,16.518751,-39.28125
1782299380040,-0.026321,1.636691,11.355043,0.151066,0.066362,0.093629,-7.95,14.306251,-38.25
1782299380043,-0.083749,1.636691,11.515362,0.178555,0.024212,0.113177,-7.95,14.306251,-38.25
1782299380049,-0.083749,1.636691,11.515362,0.178555,0.024212,0.113177,-8.25,15.4875,-39.300003
1782299380052,-0.112463,1.706083,11.520148,0.187718,-0.033209,0.124783,-8.25,15.4875,-39.300003
1782299380059,-0.112463,1.706083,11.520148,0.187718,-0.033209,0.124783,-9.28125,15.075001,-39.75
1782299380060,-0.112463,1.706083,11.520148,0.177333,-0.101626,0.141276,-9.28125,15.075001,-39.75
1782299380061,-0.071785,1.744368,11.288044,0.177333,-0.101626,0.141276,-9.28125,15.075001,-39.75
1782299380070,0.074178,1.667797,10.900406,0.144346,-0.170653,0.159602,-9.01875,15.50625,-39.0
1782299380080,0.155533,1.440479,10.443378,0.095477,-0.21769,0.180983,-6.76875,15.76875,-38.53125
1782299380086,0.155533,1.440479,10.443378,0.031947,-0.19631,0.202974,-6.76875,15.76875,-38.53125
1782299380087,0.155533,1.129412,10.287844,0.031947,-0.19631,0.202974,-6.76875,15.76875,-38.53125
1782299380089,0.155533,1.129412,10.287844,0.031947,-0.19631,0.202974,-8.137501,15.637501,-38.381252
1782299380095,0.174676,0.76331,10.574983,-0.060904,-0.123006,0.231073,-8.137501,15.637501,-38.381252
1782299380100,0.174676,0.76331,10.574983,-0.060904,-0.123006,0.231073,-8.25,15.7875,-39.300003
1782299380103,0.174676,0.76331,10.574983,-0.209955,-0.057643,0.275056,-8.25,15.7875,-39.300003
1782299380104,0.303888,0.461815,11.012869,-0.209955,-0.057643,0.275056,-8.25,15.7875,-39.300003
1782299380115,0.303888,0.461815,11.012869,-0.209955,-0.057643,0.275056,-9.7875,15.806251,-38.53125
1782299380116,0.485743,0.062213,11.489041,-0.416428,-0.036263,0.315984,-9.7875,15.806251,-38.53125
1782299380119,0.485743,0.062213,11.489041,-0.416428,-0.036263,0.315984,-8.7375,16.5375,-38.981251
1782299380121,0.634098,-0.452243,12.070497,-0.624732,-0.053978,0.342862,-8.7375,16.5375,-38.981251
1782299380130,0.653241,-0.911665,12.685452,-0.732245,-0.101626,0.35569,-8.3625,14.906251,-39.900002
1782299380139,0.571885,-1.131805,12.955842,-0.653443,-0.128504,0.354468,-8.025001,18.300001,-39.262501
1782299380146,0.571885,-1.131805,12.955842,-0.401156,-0.137667,0.342251,-8.025001,18.300001,-39.262501
1782299380147,0.454636,-1.088734,12.465313,-0.401156,-0.137667,0.342251,-8.025001,18.300001,-39.262501
1782299380148,0.454636,-1.088734,12.465313,-0.401156,-0.137667,0.342251,-9.056251,17.56875,-39.731251
1782299380155,0.435494,-0.794417,11.508184,-0.062737,-0.127893,0.322092,-9.056251,17.56875,-39.731251
1782299380160,0.435494,-0.794417,11.508184,-0.062737,-0.127893,0.322092,-10.743751,17.4375,-38.831253
1782299380163,0.435494,-0.794417,11.508184,0.276904,-0.090019,0.298879,-10.743751,17.4375,-38.831253
1782299380164,0.476172,-0.368495,10.42902,0.276904,-0.090019,0.298879,-10.743751,17.4375,-38.831253
1782299380169,0.476172,-0.368495,10.42902,0.276904,-0.090019,0.298879,-9.356251,16.5375,-38.53125
1782299380172,0.478565,0.177069,9.361822,0.552404,0.002832,0.280554,-9.356251,16.5375,-38.53125
1782299380179,0.478565,0.177069,9.361822,0.552404,0.002832,0.280554,-8.137501,15.937501,-38.381252
1782299380181,0.411565,0.667598,8.318551,0.708174,0.12867,0.276277,-8.137501,15.937501,-38.381252
1782299380189,0.411565,0.667598,8.318551,0.708174,0.12867,0.276277,-8.25,15.7875,-39.300003
1782299380190,0.418744,1.196411,7.557633,0.709396,0.250232,0.28544,-8.25,15.7875,-39.300003
1782299380199,0.421137,1.485943,7.126925,0.569508,0.332699,0.290327,-8.25,15.4875,-39.0
1782299380207,0.440279,1.366302,7.126925,0.313556,0.356523,0.292771,-8.25,15.4875,-39.0
1782299380218,0.354138,1.141376,7.330315,0.008734,0.289939,0.282386,-9.13125,14.475,-39.150002
1782299380220,0.354138,1.141376,7.330315,0.008734,0.289939,0.282386,-9.262501,15.525001,-40.818752
1782299380224,0.306281,0.851845,8.033805,-0.280816,0.165322,0.253065,-9.262501,15.525001,-40.818752
1782299380229,0.306281,0.851845,8.033805,-0.280816,0.165322,0.253065,-8.15625,16.96875,-39.131252
1782299380233,0.189033,0.583849,8.967006,-0.48912,0.044371,0.213969,-8.15625,16.96875,-39.131252
1782299380239,0.189033,0.583849,8.967006,-0.48912,0.044371,0.213969,-7.35,16.368752,-39.600002
1782299380241,0.078963,0.351745,10.010276,-0.578307,0.011995,0.175485,-7.35,16.368752,-39.600002
1782299380250,0.040678,0.119641,10.563018,-0.539822,0.081634,0.145552,-7.0875,17.400002,-39.581253
1782299380260,0.01675,-0.074178,10.436199,-0.423147,0.198309,0.12295,-7.5375,17.550001,-40.03125
1782299380267,-0.023928,-0.189033,10.041383,-0.293644,0.254508,0.096072,-7.5375,17.550001,-40.03125
1782299380268,-0.023928,-0.189033,10.041383,-0.293644,0.254508,0.096072,-7.96875,16.087502,-39.28125
1782299380276,-0.081356,-0.193819,9.830815,-0.178801,0.250843,0.07286,-7.96875,16.087502,-39.28125
1782299380280,-0.081356,-0.193819,9.830815,-0.178801,0.250843,0.07286,-8.175,17.700001,-38.8125
1782299380284,-0.155533,-0.11007,9.622639,-0.088393,0.25573,0.060031,-8.175,17.700001,-38.8125
1782299380289,-0.155533,-0.11007,9.622639,-0.088393,0.25573,0.060031,-8.137501,16.368752,-39.131252
1782299380293,-0.291924,0.07657,9.357036,-0.021809,0.288106,0.056977,-8.137501,16.368752,-39.131252
1782299380299,-0.291924,0.07657,9.357036,-0.021809,0.288106,0.056977,-7.96875,16.518751,-39.75
1782299380301,-0.215354,0.131605,9.007684,0.016676,0.32598,0.055144,-7.96875,16.518751,-39.75
1782299380309,-0.215354,0.131605,9.007684,0.023395,0.327201,0.049036,-7.96875,16.518751,-39.75
1782299380310,-0.22014,0.136391,8.828222,0.023395,0.327201,0.049036,-5.71875,17.231251,-39.731251
1782299380325,-0.160319,0.18664,8.734902,0.000793,0.305821,0.041705,-6.20625,17.231251,-38.512501
1782299380327,-0.090927,0.251246,8.663118,-0.040746,0.281387,0.040484,-6.20625,17.231251,-38.512501
1782299380328,-0.090927,0.251246,8.663118,-0.040746,0.281387,0.040484,-5.38125,17.231251,-40.800003
1782299380335,-0.028714,0.291924,8.629618,-0.087782,0.244735,0.041095,-5.38125,17.231251,-40.800003
1782299380340,-0.028714,0.291924,8.629618,-0.087782,0.244735,0.041095,-5.79375,16.368752,-40.950001
1782299380344,-0.028714,0.291924,8.629618,-0.117715,0.189146,0.039262,-5.79375,16.368752,-40.950001
1782299380345,0.023928,0.301496,8.612868,-0.117715,0.189146,0.039262,-5.79375,16.368752,-40.950001
1782299380349,0.023928,0.301496,8.612868,-0.117715,0.189146,0.039262,-4.5375,17.6625,-39.131252
1782299380352,0.043071,0.284746,8.646368,-0.116493,0.125005,0.034986,-4.5375,17.6625,-39.131252
1782299380358,0.043071,0.284746,8.646368,-0.116493,0.125005,0.034986,-6.3,16.950001,-40.200001
1782299380361,0.0335,0.31346,8.713367,-0.081063,0.067584,0.028877,-6.3,16.950001,-40.200001
1782299380368,0.0335,0.31346,8.713367,-0.081063,0.067584,0.028877,-7.35,16.668751,-40.200001
1782299380370,0.009571,0.354138,8.696617,-0.018144,0.030321,0.021547,-7.35,16.668751,-40.200001
1782299380380,0.011964,0.437887,8.529119,0.048441,0.005887,0.016049,-6.16875,17.25,-40.03125
1782299380387,0.035892,0.533599,8.251552,0.094255,-0.015494,0.012995,-6.16875,17.25,-40.03125
1782299380389,0.035892,0.533599,8.251552,0.094255,-0.015494,0.012995,-6.13125,16.800001,-40.5
1782299380395,0.035892,0.533599,8.251552,0.115636,-0.04787,0.010551,-6.13125,16.800001,-40.5
1782299380396,0.09332,0.619741,8.01227,0.115636,-0.04787,0.010551,-6.13125,16.800001,-40.5
1782299380399,0.09332,0.619741,8.01227,0.115636,-0.04787,0.010551,-5.7,17.53125,-40.481251
1782299380404,0.107677,0.756132,7.9022,0.121744,-0.069861,0.005054,-5.7,17.53125,-40.481251
1782299380409,0.107677,0.756132,7.9022,0.121744,-0.069861,0.005054,-5.85,16.35,-39.581253
1782299380412,0.165105,0.715454,7.91895,0.116857,-0.061919,0.006275,-5.85,16.35,-39.581253
1782299380425,0.265603,0.775275,8.01227,0.095477,-0.035652,0.012384,-7.14375,16.087502,-41.118752
1782299380428,0.265603,0.775275,8.01227,0.095477,-0.035652,0.012384,-5.0625,17.38125,-41.400002
1782299380429,0.265603,0.775275,8.01227,0.064934,-0.014272,0.013606,-5.0625,17.38125,-41.400002
1782299380430,0.344566,0.789631,8.170196,0.064934,-0.014272,0.013606,-5.0625,17.38125,-41.400002
1782299380440,0.311067,0.861416,8.435799,0.039278,-0.006331,0.019714,-6.45,16.518751,-40.050003
1782299380447,0.133998,0.866202,8.74926,0.024617,0.013217,0.032542,-6.45,16.518751,-40.050003
1782299380449,0.133998,0.866202,8.74926,0.024617,0.013217,0.032542,-5.79375,15.618751,-40.668751
1782299380455,0.133998,0.866202,8.74926,0.028282,0.032765,0.05209,-5.79375,15.618751,-40.668751
1782299380456,0.07657,0.751346,8.981363,0.028282,0.032765,0.05209,-5.79375,15.618751,-40.668751
1782299380459,0.07657,0.751346,8.981363,0.028282,0.032765,0.05209,-5.64375,16.06875,-40.800003
1782299380464,-0.004786,0.739382,9.179967,0.050884,0.025434,0.064307,-5.64375,16.06875,-40.800003
1782299380469,-0.004786,0.739382,9.179967,0.050884,0.025434,0.064307,-6.075,15.0375,-40.818752
1782299380472,-0.004786,0.739382,9.179967,0.091201,-0.003887,0.070416,-6.075,15.0375,-40.818752
1782299380473,-0.09332,0.799203,9.299609,0.091201,-0.003887,0.070416,-6.075,15.0375,-40.818752
1782299380478,-0.09332,0.799203,9.299609,0.091201,-0.003887,0.070416,-6.54375,16.368752,-41.418751
1782299380481,-0.122034,0.897308,9.392929,0.140681,-0.032598,0.074081,-6.54375,16.368752,-41.418751
1782299380489,-0.122034,0.897308,9.392929,0.140681,-0.032598,0.074081,-6.54375,16.368752,-41.418751
1782299380490,-0.141177,0.976272,9.352251,0.187718,-0.060087,0.07286,-6.54375,16.368752,-41.418751
1782299380500,-0.153141,1.081556,9.218253,0.215207,-0.089408,0.069805,-6.54375,16.368752,-41.418751
1782299380501,-0.153141,1.081556,9.218253,0.215207,-0.089408,0.069805,-6.43125,17.25,-41.100002
1782299380507,-0.155533,1.201197,9.084254,0.215817,-0.115065,0.066751,-6.43125,17.25,-41.100002
1782299380508,-0.155533,1.201197,9.084254,0.215817,-0.115065,0.066751,-6.43125,17.25,-41.100002
1782299380516,-0.181855,1.299303,9.022041,0.193215,-0.13278,0.069194,-6.43125,17.25,-41.100002
1782299380526,-0.174676,1.371087,9.098611,0.152898,-0.125449,0.077746,-6.7125,16.81875,-41.100002
1782299380530,-0.174676,1.371087,9.098611,0.152898,-0.125449,0.077746,-6.675,15.4875,-41.118752
1782299380533,-0.071785,1.423729,9.246966,0.106473,-0.100404,0.088131,-6.675,15.4875,-41.118752
1782299380538,-0.071785,1.423729,9.246966,0.106473,-0.100404,0.088131,-6.99375,15.187501,-40.668751
1782299380541,0.019143,1.462015,9.450356,0.057604,-0.066806,0.096683,-6.99375,15.187501,-40.668751
1782299380549,0.019143,1.462015,9.450356,0.057604,-0.066806,0.096683,-4.44375,16.931252,-41.400002
1782299380550,0.105284,1.459622,9.744673,0.028282,-0.037485,0.099738,-4.44375,16.931252,-41.400002
1782299380561,0.100499,1.416551,10.050954,0.022784,-0.009996,0.099127,-4.89375,15.468751,-40.050003
1782299380567,0.088534,1.375873,10.338093,0.04783,0.011995,0.097294,-4.89375,15.468751,-40.050003
1782299380568,0.088534,1.375873,10.338093,0.04783,0.011995,0.097294,-5.49375,16.368752,-41.418751
1782299380575,0.088534,1.375873,10.338093,0.096699,0.01566,0.08752,-5.49375,16.368752,-41.418751
1782299380576,0.040678,1.351945,10.546269,0.096699,0.01566,0.08752,-5.49375,16.368752,-41.418751
1782299380578,0.040678,1.351945,10.546269,0.096699,0.01566,0.08752,-5.2875,14.2875,-40.818752
1782299380584,-0.028714,1.320838,10.670696,0.155953,-0.011218,0.072249,-5.2875,14.2875,-40.818752
1782299380589,-0.028714,1.320838,10.670696,0.155953,-0.011218,0.072249,-4.9125,16.050001,-40.050003
1782299380593,-0.088534,1.227518,10.723338,0.21032,-0.061309,0.052701,-4.9125,16.050001,-40.050003
1782299380599,-0.088534,1.227518,10.723338,0.21032,-0.061309,0.052701,-5.5875,15.0375,-41.568752
1782299380601,-0.172283,1.158126,10.787944,0.246972,-0.104069,0.035597,-5.5875,15.0375,-41.568752
1782299380608,-0.172283,1.158126,10.787944,0.246972,-0.104069,0.035597,-5.475,15.168751,-40.668751
1782299380610,-0.224925,1.141376,10.79273,0.2598,-0.124228,0.020936,-5.475,15.168751,-40.668751
1782299380620,-0.229711,1.088734,10.761623,0.251248,-0.129115,0.007497,-4.78125,14.306251,-42.337502
1782299380633,-0.148355,1.036092,10.780765,0.223759,-0.125449,-0.000444,-5.41875,14.887501,-42.037502
1782299380635,-0.148355,1.036092,10.780765,0.193826,-0.115676,-0.007164,-5.41875,14.887501,-42.037502
1782299380636,0.014357,1.06002,10.919549,0.193826,-0.115676,-0.007164,-5.41875,14.887501,-42.037502
1782299380638,0.014357,1.06002,10.919549,0.193826,-0.115676,-0.007164,-5.4,13.856251,-41.4375
1782299380644,0.177069,1.148555,11.077475,0.180387,-0.09796,-0.016327,-5.4,13.856251,-41.4375
1782299380650,0.177069,1.148555,11.077475,0.180387,-0.09796,-0.016327,-5.7,14.45625,-42.487503
1782299380653,0.29671,1.253839,11.192331,0.19627,-0.081467,-0.021825,-5.7,14.45625,-42.487503
1782299380659,0.29671,1.253839,11.192331,0.19627,-0.081467,-0.021825,-4.5375,14.2875,-40.818752
1782299380661,0.29671,1.253839,11.192331,0.230478,-0.081467,-0.023046,-4.5375,14.2875,-40.818752
1782299380662,0.272782,1.299303,11.194724,0.230478,-0.081467,-0.023046,-4.5375,14.2875,-40.818752
1782299380668,0.272782,1.299303,11.194724,0.230478,-0.081467,-0.023046,-4.36875,15.168751,-42.037502
1782299380669,0.272782,1.299303,11.194724,0.270795,-0.102237,-0.023657,-4.36875,15.168751,-42.037502
1782299380670,0.327817,1.316052,11.060726,0.270795,-0.102237,-0.023657,-4.36875,15.168751,-42.037502
1782299380680,0.425922,1.392623,10.936299,0.296452,-0.147441,-0.030988,-3.8625,13.106251,-41.737503
1782299380687,0.435494,1.521835,10.905192,0.301949,-0.195088,-0.038318,-3.8625,13.106251,-41.737503
1782299380688,0.435494,1.521835,10.905192,0.301949,-0.195088,-0.038318,-6.1125,13.44375,-42.806252
1782299380695,0.435494,1.521835,10.905192,0.290343,-0.214636,-0.044427,-6.1125,13.44375,-42.806252
1782299380696,0.440279,1.629512,10.898014,0.290343,-0.214636,-0.044427,-6.1125,13.44375,-42.806252
1782299380699,0.440279,1.629512,10.898014,0.290343,-0.214636,-0.044427,-5.4375,13.406251,-39.918751
1782299380704,0.524028,1.624727,10.881264,0.264076,-0.223188,-0.052368,-5.4375,13.406251,-39.918751
1782299380709,0.524028,1.624727,10.881264,0.264076,-0.223188,-0.052368,-6.9,14.175,-42.037502
1782299380712,0.524028,1.624727,10.881264,0.213985,-0.212192,-0.06092,-6.9,14.175,-42.037502
1782299380713,0.622134,1.481157,10.773587,0.213985,-0.212192,-0.06092,-6.9,14.175,-42.037502
1782299380718,0.622134,1.481157,10.773587,0.213985,-0.212192,-0.06092,-6.375,11.6625,-42.056252
1782299380721,0.622134,1.481157,10.773587,0.130296,-0.174929,-0.074359,-6.375,11.6625,-42.056252
1782299380722,0.674776,1.256232,10.551055,0.130296,-0.174929,-0.074359,-6.375,11.6625,-42.056252
1782299380732,0.770489,0.894916,10.366807,0.003847,-0.096739,-0.084744,-5.175,12.543751,-42.356251
1782299380740,0.847059,0.519243,10.35245,-0.169638,0.024212,-0.087187,-5.5125,12.543751,-41.606251
1782299380747,0.954736,0.165105,10.613268,-0.374278,0.16349,-0.084744,-5.5125,12.543751,-41.606251
1782299380748,0.954736,0.165105,10.613268,-0.374278,0.16349,-0.084744,-6.825,11.6625,-42.056252
1782299380756,1.055235,-0.177069,11.175581,-0.562424,0.29055,-0.083522,-6.825,11.6625,-42.056252
1782299380759,1.055235,-0.177069,11.175581,-0.562424,0.29055,-0.083522,-6.9,13.875001,-41.737503
1782299380764,1.06002,-0.51685,11.785751,-0.680932,0.39012,-0.083522,-6.9,13.875001,-41.737503
1782299380769,1.06002,-0.51685,11.785751,-0.680932,0.39012,-0.083522,-7.03125,12.993751,-41.90625
1782299380773,1.040878,-0.825524,12.245173,-0.695593,0.459148,-0.080468,-7.03125,12.993751,-41.90625
1782299380781,0.90688,-1.01695,12.443778,-0.613737,0.493967,-0.074359,-5.64375,13.425,-42.806252
1782299380788,0.90688,-1.01695,12.443778,-0.613737,0.493967,-0.074359,-4.65,14.156251,-42.037502
1782299380790,0.758525,-1.067199,12.410278,-0.457355,0.486637,-0.069472,-4.65,14.156251,-42.037502
1782299380800,0.567099,-1.002593,12.094425,-0.258824,0.454872,-0.061531,-2.98125,12.187501,-40.087502
1782299380807,0.567099,-1.002593,12.094425,-0.057239,0.427383,-0.049924,-2.98125,12.187501,-40.087502
1782299380808,0.37328,-0.870987,11.548862,-0.057239,0.427383,-0.049924,-2.98125,12.187501,-40.087502
1782299380811,0.37328,-0.870987,11.548862,-0.057239,0.427383,-0.049924,-4.8,14.00625,-41.587502
1782299380816,0.179462,-0.672383,10.778372,0.110138,0.38951,-0.037707,-4.8,14.00625,-41.587502
1782299380818,0.179462,-0.672383,10.778372,0.110138,0.38951,-0.037707,-3.75,13.9875,-41.587502
1782299380824,0.086142,-0.380459,10.027027,0.227424,0.329034,-0.027322,-3.75,13.9875,-41.587502
1782299380829,0.086142,-0.380459,10.027027,0.227424,0.329034,-0.027322,-2.0625,13.368751,-41.737503
1782299380841,0.023928,-0.11007,9.447963,0.280569,0.289328,-0.016938,-4.48125,13.556251,-41.887501
1782299380842,-0.009571,0.205783,8.962221,0.278126,0.293604,-0.004109,-4.48125,13.556251,-41.887501
1782299380849,-0.009571,0.205783,8.962221,0.278126,0.293604,-0.004109,-3.45,12.39375,-44.325001
1782299380850,-0.059821,0.421137,8.569797,0.228646,0.326591,0.00994,-3.45,12.39375,-44.325001
1782299380860,-0.155533,0.538385,8.239588,0.140681,0.34064,0.022158,-2.775,12.356251,-42.056252
1782299380867,-0.177069,0.612563,8.031412,0.022173,0.296658,0.032542,-2.775,12.356251,-42.056252
1782299380868,-0.177069,0.612563,8.031412,0.022173,0.296658,0.032542,-2.26875,11.325001,-42.525002
1782299380876,-0.174676,0.600598,8.155839,-0.103054,0.194033,0.040484,-2.26875,11.325001,-42.525002
1782299380878,-0.174676,0.600598,8.155839,-0.103054,0.194033,0.040484,-4.9125,13.125001,-42.056252
1782299380884,-0.174676,0.600598,8.155839,-0.205679,0.073082,0.040484,-4.9125,13.125001,-42.056252
1782299380885,-0.162712,0.583849,8.471692,-0.205679,0.073082,0.040484,-4.9125,13.125001,-42.056252
1782299380889,-0.162712,0.583849,8.471692,-0.205679,0.073082,0.040484,-0.75,14.231251,-41.118752
1782299380893,-0.124427,0.538385,8.754045,-0.260657,-0.029544,0.03071,-0.75,14.231251,-41.118752
1782299380899,-0.124427,0.538385,8.754045,-0.260657,-0.029544,0.03071,-2.4,13.81875,-40.987503
1782299380901,-0.124427,0.538385,8.754045,-0.264322,-0.100404,0.012384,-2.4,13.81875,-40.987503
1782299380902,-0.064606,0.440279,8.907185,-0.264322,-0.100404,0.012384,-2.4,13.81875,-40.987503
1782299380909,-0.064606,0.440279,8.907185,-0.264322,-0.100404,0.012384,-3.58125,12.656251,-40.6875
1782299380910,-0.064606,0.440279,8.907185,-0.222783,-0.14011,-0.006553,-3.58125,12.656251,-40.6875
1782299380911,-0.035892,0.327817,8.933507,-0.222783,-0.14011,-0.006553,-3.58125,12.656251,-40.6875
1782299380921,0.078963,0.258425,8.837794,-0.165362,-0.159047,-0.01877,-4.40625,12.525001,-43.125
1782299380927,0.078963,0.258425,8.837794,-0.111606,-0.217079,-0.031598,-4.40625,12.525001,-43.125
1782299380928,0.177069,0.143569,8.469299,-0.111606,-0.217079,-0.031598,-3.54375,12.656251,-41.756252
1782299380941,0.327817,0.196211,8.844972,-0.062737,-0.334365,-0.050535,-2.68125,13.968751,-41.887501
1782299380945,0.555135,0.138784,9.16561,-0.0438,-0.353913,-0.073137,-2.68125,13.968751,-41.887501
1782299380949,0.555135,0.138784,9.16561,-0.0438,-0.353913,-0.073137,-2.19375,12.937501,-41.587502
1782299380953,0.650848,0.105284,9.44557,-0.060293,-0.294048,-0.087798,-2.19375,12.937501,-41.587502
1782299380958,0.650848,0.105284,9.44557,-0.060293,-0.294048,-0.087798,-3.09375,13.837501,-42.806252
1782299380961,0.650848,0.105284,9.44557,-0.114049,-0.215857,-0.092685,-3.09375,13.837501,-42.806252
1782299380962,0.693919,0.095713,9.601104,-0.114049,-0.215857,-0.092685,-3.09375,13.837501,-42.806252
1782299380968,0.693919,0.095713,9.601104,-0.114049,-0.215857,-0.092685,-3.09375,13.837501,-42.806252
1782299380970,0.614955,0.102891,9.66571,-0.204457,-0.151106,-0.090852,-3.09375,13.837501,-42.806252
1782299380980,0.51685,0.119641,9.60589,-0.294865,-0.127893,-0.079246,-2.85,14.418751,-41.4375
1782299380987,0.51685,0.119641,9.60589,-0.344956,-0.151106,-0.064585,-2.85,14.418751,-41.4375
1782299380988,0.440279,0.129212,9.567605,-0.344956,-0.151106,-0.064585,-2.85,14.418751,-41.4375
1782299380989,0.440279,0.129212,9.567605,-0.344956,-0.151106,-0.064585,-3.05625,12.075001,-42.056252
1782299380996,0.435494,0.167498,9.63939,-0.32663,-0.165766,-0.049313,-3.05625,12.075001,-42.056252
1782299380999,0.435494,0.167498,9.63939,-0.32663,-0.165766,-0.049313,-2.175,12.937501,-42.356251
1782299381005,0.445065,0.239282,9.644175,-0.242331,-0.12606,-0.034042,-2.175,12.937501,-42.356251
1782299381009,0.445065,0.239282,9.644175,-0.242331,-0.12606,-0.034042,-4.5375,13.5375,-40.068752
1782299381013,0.445065,0.239282,9.644175,-0.120769,-0.049702,-0.01877,-4.5375,13.5375,-40.068752
1782299381014,0.4666,0.382852,9.433607,-0.120769,-0.049702,-0.01877,-4.5375,13.5375,-40.068752
1782299381018,0.4666,0.382852,9.433607,-0.120769,-0.049702,-0.01877,-3.58125,13.087501,-40.987503
1782299381022,0.435494,0.583849,9.03879,-0.007759,0.018715,-0.007164,-3.58125,13.087501,-40.987503
1782299381028,0.435494,0.583849,9.03879,-0.007759,0.018715,-0.007164,-3.01875,15.01875,-41.887501
1782299381030,0.435494,0.583849,9.03879,0.074097,0.054145,0.006275,-3.01875,15.01875,-41.887501
1782299381031,0.404387,0.739382,8.694224,0.074097,0.054145,0.006275,-3.01875,15.01875,-41.887501
1782299381042,0.378066,0.875773,8.47887,0.117468,0.074914,0.019103,-3.95625,14.868751,-40.668751
1782299381048,0.31346,0.964308,8.366408,0.121744,0.101792,0.028877,-3.95625,14.868751,-40.668751
1782299381049,0.31346,0.964308,8.366408,0.121744,0.101792,0.028877,-3.5625,13.106251,-41.4375
1782299381056,0.277567,1.033699,8.29223,0.099753,0.11462,0.035597,-3.5625,13.106251,-41.4375
1782299381060,0.277567,1.033699,8.29223,0.099753,0.11462,0.035597,-2.775,12.056251,-41.756252
1782299381065,0.215354,1.055235,8.299408,0.06188,0.101792,0.036818,-2.775,12.056251,-41.756252
1782299381069,0.215354,1.055235,8.299408,0.06188,0.101792,0.036818,-4.33125,13.856251,-41.737503
1782299381073,0.215354,1.055235,8.299408,0.027671,0.052312,0.033764,-4.33125,13.856251,-41.737503
1782299381074,0.122034,1.09352,8.397514,0.027671,0.052312,0.033764,-4.33125,13.856251,-41.737503
1782299381078,0.122034,1.09352,8.397514,0.027671,0.052312,0.033764,-2.60625,11.75625,-41.90625
1782299381082,0.122034,1.09352,8.397514,0.011178,-0.003887,0.028877,-2.60625,11.75625,-41.90625
1782299381084,0.059821,1.105484,8.57219,0.011178,-0.003887,0.028877,-2.60625,11.75625,-41.90625
1782299381088,0.059821,1.105484,8.57219,0.011178,-0.003887,0.028877,-2.2875,12.056251,-42.825001
1782299381091,0.062213,1.11027,8.612868,0.017286,-0.038096,0.023379,-2.2875,12.056251,-42.825001
1782299381101,0.071785,1.17009,8.553048,0.036223,-0.046037,0.020936,-3.13125,13.387501,-40.987503
1782299381109,0.11007,1.284946,8.431014,0.056382,-0.045426,0.019714,-2.625,12.20625,-41.606251
1782299381117,0.153141,1.337588,8.323337,0.064323,-0.064363,0.019714,-2.625,12.20625,-41.606251
1782299381118,0.153141,1.337588,8.323337,0.064323,-0.064363,0.019714,-2.2125,11.7375,-40.087502
1782299381126,0.205783,1.344766,8.306587,0.044164,-0.101626,0.024601,-2.2125,11.7375,-40.087502
1782299381129,0.205783,1.344766,8.306587,0.044164,-0.101626,0.024601,-3.525,12.075001,-42.056252
1782299381134,0.244068,1.363909,8.414264,-0.007148,-0.135834,0.034986,-3.525,12.075001,-42.056252
1782299381139,0.244068,1.363909,8.414264,-0.007148,-0.135834,0.034986,-4.29375,10.89375,-40.256252
1782299381149,0.232104,1.366302,8.610475,-0.073732,-0.153549,0.048425,-1.425,12.187501,-41.606251
1782299381150,0.232104,1.366302,8.610475,-0.129932,-0.160269,0.065529,-1.425,12.187501,-41.606251
1782299381151,0.18664,1.31366,8.900007,-0.129932,-0.160269,0.065529,-1.425,12.187501,-41.606251
1782299381160,0.18664,1.196411,9.16561,-0.154367,-0.151717,0.08019,-3.825,12.675,-42.506252
1782299381169,0.212961,1.119841,9.390536,-0.153145,-0.129115,0.092407,-2.04375,13.387501,-42.037502
1782299381176,0.263211,1.086342,9.526927,-0.127489,-0.09735,0.102792,-2.04375,13.387501,-42.037502
1782299381178,0.263211,1.086342,9.526927,-0.127489,-0.09735,0.102792,-3.95625,11.793751,-42.375
1782299381185,0.27996,1.055235,9.625032,-0.083506,-0.073526,0.109511,-3.95625,11.793751,-42.375
1782299381190,0.27996,1.055235,9.625032,-0.083506,-0.073526,0.109511,-2.8125,12.356251,-40.987503
1782299381194,0.284746,1.009771,9.675281,-0.039524,-0.057033,0.116231,-2.8125,12.356251,-40.987503
1782299381201,0.284746,1.009771,9.675281,-0.039524,-0.057033,0.116231,-0.525,12.31875,-41.456253
1782299381202,0.315853,1.019342,9.720745,-0.00104,-0.063141,0.127226,-0.525,12.31875,-41.456253
1782299381208,0.315853,1.019342,9.720745,-0.00104,-0.063141,0.127226,-2.79375,12.656251,-41.4375
1782299381210,0.380459,1.031307,9.821244,0.030115,-0.096128,0.135779,-2.79375,12.656251,-41.4375
1782299381220,0.442672,1.064806,9.948063,0.049662,-0.128504,0.144942,-1.275,12.337501,-41.756252
1782299381229,0.512064,1.067199,10.029419,0.06249,-0.144386,0.160824,-2.9625,11.75625,-40.537502
1782299381237,0.528814,1.069592,10.062919,0.071043,-0.152327,0.17915,-2.9625,11.75625,-40.537502
1782299381238,0.528814,1.069592,10.062919,0.071043,-0.152327,0.17915,-3.28125,12.937501,-41.137501
1782299381245,0.540778,1.095913,10.07249,0.074097,-0.150495,0.198087,-3.28125,12.937501,-41.137501
1782299381250,0.540778,1.095913,10.07249,0.074097,-0.150495,0.198087,-1.70625,10.556251,-40.706253
1782299381253,0.579063,1.122234,10.079669,0.075319,-0.150495,0.217024,-1.70625,10.556251,-40.706253
1782299381259,0.579063,1.122234,10.079669,0.075319,-0.150495,0.217024,-1.275,12.337501,-41.456253
1782299381262,0.622134,1.15334,10.082061,0.080206,-0.149273,0.236571,-1.275,12.337501,-41.456253
1782299381268,0.622134,1.15334,10.082061,0.080206,-0.149273,0.236571,-3.24375,11.475,-40.856251
1782299381270,0.681954,1.117448,10.156239,0.087536,-0.141332,0.253065,-3.24375,11.475,-40.856251
1782299381280,0.751346,1.052842,10.309379,0.091201,-0.126671,0.267114,-1.44375,12.187501,-40.837502
1782299381289,0.772882,0.971486,10.534305,0.088147,-0.116286,0.273834,-1.03125,10.725,-42.675003
1782299381296,0.746561,0.916451,10.799908,0.086314,-0.117508,0.278721,-1.03125,10.725,-42.675003
1782299381298,0.746561,0.916451,10.799908,0.086314,-0.117508,0.278721,-2.26875,11.325001,-42.525002
1782299381305,0.756132,0.820738,11.020048,0.09731,-0.11201,0.281775,-2.26875,11.325001,-42.525002
1782299381309,0.756132,0.820738,11.020048,0.09731,-0.11201,0.281775,-2.3625,13.387501,-41.4375
1782299381313,0.756132,0.691526,11.154046,0.127853,-0.091852,0.276888,-2.3625,13.387501,-41.4375
1782299381319,0.756132,0.691526,11.154046,0.127853,-0.091852,0.276888,-2.94375,12.95625,-41.90625
1782299381322,0.708275,0.660419,11.192331,0.173057,-0.057643,0.267725,-2.94375,12.95625,-41.90625
1782299381328,0.708275,0.660419,11.192331,0.173057,-0.057643,0.267725,-2.23125,11.625,-44.043751
1782299381330,0.658026,0.756132,11.087047,0.222537,-0.035041,0.257341,-2.23125,11.625,-44.043751
1782299381339,0.662812,0.899701,10.909978,0.258578,-0.020381,0.246956,-0.6,10.70625,-41.925003
1782299381349,0.62692,0.995414,10.747266,0.277515,-0.002055,0.23596,-2.2125,11.45625,-39.787502
1782299381356,0.571885,1.050449,10.630018,0.274461,0.027878,0.230463,-2.2125,11.45625,-39.787502
1782299381358,0.571885,1.050449,10.630018,0.274461,0.027878,0.230463,-1.6875,10.575001,-41.006252
1782299381365,0.535992,1.055235,10.560626,0.246361,0.071249,0.224354,-1.6875,10.575001,-41.006252
1782299381369,0.535992,1.055235,10.560626,0.246361,0.071249,0.224354,-2.025,11.306251,-40.706253
1782299381374,0.404387,1.040878,10.577376,0.184053,0.103014,0.21458,-2.025,11.306251,-40.706253
1782299381379,0.404387,1.040878,10.577376,0.184053,0.103014,0.21458,-1.74375,12.337501,-40.987503
1782299381382,0.263211,1.160519,10.627625,0.102807,0.116453,0.205417,-1.74375,12.337501,-40.987503
1782299381388,0.263211,1.160519,10.627625,0.102807,0.116453,0.205417,-0.16875,10.856251,-41.775002
1782299381390,0.263211,1.160519,10.627625,0.025228,0.11462,0.193811,-0.16875,10.856251,-41.775002
1782299381391,0.179462,1.287339,10.742481,0.025228,0.11462,0.193811,-0.16875,10.856251,-41.775002
1782299381400,0.112463,1.270589,10.766408,-0.03647,0.102403,0.179761,-1.8375,9.675,-40.106251
1782299381409,0.098106,1.095913,10.771194,-0.090226,0.074914,0.165711,0.54375,11.56875,-41.006252
1782299381416,0.114855,0.882952,10.876479,-0.14948,0.041928,0.153494,0.54375,11.56875,-41.006252
1782299381418,0.114855,0.882952,10.876479,-0.14948,0.041928,0.153494,-1.9875,10.875,-41.456253
1782299381425,0.112463,0.660419,11.12294,-0.219118,0.004054,0.141276,-1.9875,10.875,-41.456253
1782299381429,0.112463,0.660419,11.12294,-0.219118,0.004054,0.141276,-1.9875,11.325001,-42.075001
1782299381433,0.112463,0.660419,11.12294,-0.2912,-0.0271,0.133335,-1.9875,11.325001,-42.075001
1782299381434,0.0335,0.366102,11.376579,-0.2912,-0.0271,0.133335,-1.9875,11.325001,-42.075001
1782299381439,0.0335,0.366102,11.376579,-0.2912,-0.0271,0.133335,-1.6125,10.14375,-42.84375
1782299381442,0.040678,0.050249,11.596718,-0.360839,-0.044815,0.130892,-1.6125,10.14375,-42.84375
1782299381449,0.040678,0.050249,11.596718,-0.360839,-0.044815,0.130892,-1.6125,10.14375,-42.84375
1782299381454,-0.023928,-0.229711,11.795322,-0.412762,-0.057033,0.131503,-1.6125,10.14375,-42.84375
1782299381460,-0.129212,-0.418744,11.833607,-0.428645,-0.070472,0.139444,-0.375,10.387501,-39.806252
1782299381469,-0.208176,-0.567099,11.68286,-0.398712,-0.085743,0.154105,-1.65,9.84375,-41.775002
1782299381477,-0.248854,-0.641276,11.383757,-0.324187,-0.108956,0.17182,-1.65,9.84375,-41.775002
1782299381478,-0.248854,-0.641276,11.383757,-0.324187,-0.108956,0.17182,-0.09375,11.71875,-40.087502
1782299381485,-0.234497,-0.622134,10.97937,-0.21362,-0.119952,0.187702,-0.09375,11.71875,-40.087502
1782299381489,-0.234497,-0.622134,10.97937,-0.21362,-0.119952,0.187702,-2.175,11.45625,-40.856251
1782299381494,-0.181855,-0.509671,10.412271,-0.090837,-0.105902,0.202363,-2.175,11.45625,-40.856251
1782299381499,-0.181855,-0.509671,10.412271,-0.090837,-0.105902,0.202363,-2.26875,10.875,-42.075001
1782299381502,-0.112463,-0.337388,9.77578,0.019119,-0.075359,0.220078,-2.26875,10.875,-42.075001
1782299381509,-0.112463,-0.337388,9.77578,0.019119,-0.075359,0.220078,-0.58125,9.975,-41.925003
1782299381511,0.002393,-0.131605,9.285251,0.096088,-0.037485,0.23596,-0.58125,9.975,-41.925003
1782299381520,0.01675,0.047856,9.043577,0.133351,0.005887,0.248178,-0.09375,11.418751,-40.087502
1782299381529,-0.021535,0.217747,8.986148,0.131518,0.052312,0.261006,-0.825,9.09375,-42.84375
1782299381536,-0.023928,0.323031,9.048362,0.093034,0.081634,0.272001,-0.825,9.09375,-42.84375
1782299381538,-0.023928,0.323031,9.048362,0.093034,0.081634,0.272001,-0.35625,11.7375,-41.606251
1782299381545,-0.055035,0.495314,9.103397,0.026449,0.074303,0.27811,-0.35625,11.7375,-41.606251
1782299381548,-0.055035,0.495314,9.103397,0.026449,0.074303,0.27811,0.5625,11.56875,-41.756252
1782299381554,-0.167498,0.256032,9.306787,-0.049909,0.030932,0.282997,0.5625,11.56875,-41.756252
1782299381560,-0.167498,0.256032,9.306787,-0.049909,0.030932,0.282997,0.43125,10.9875,-41.925003
1782299381562,-0.114855,-0.040678,9.404892,-0.118936,-0.028933,0.290938,0.43125,10.9875,-41.925003
1782299381568,-0.114855,-0.040678,9.404892,-0.118936,-0.028933,0.290938,-0.58125,12.618751,-40.237503
1782299381571,-0.057428,-0.162712,9.567605,-0.167195,-0.080856,0.278721,-0.58125,12.618751,-40.237503
1782299381578,-0.057428,-0.162712,9.567605,-0.167195,-0.080856,0.278721,-0.46875,10.856251,-41.456253
1782299381579,0.055035,-0.086142,9.701602,-0.175747,-0.117508,0.262838,-0.46875,10.856251,-41.456253
1782299381589,0.131605,-0.035892,9.818851,-0.143371,-0.119341,0.265282,0.2625,11.587501,-41.756252
1782299381597,0.153141,0.095713,9.751852,-0.087782,-0.086354,0.269558,0.2625,11.587501,-41.756252
1782299381598,0.153141,0.095713,9.751852,-0.087782,-0.086354,0.269558,0.54375,12.31875,-41.756252
1782299381605,0.241675,-0.102891,9.419249,-0.032804,-0.04848,0.278721,0.54375,12.31875,-41.756252
1782299381608,0.241675,-0.102891,9.419249,-0.032804,-0.04848,0.278721,-0.99375,12.0375,-40.6875
1782299381614,0.306281,-0.181855,9.156039,-0.007148,-0.014272,0.289106,-0.99375,12.0375,-40.6875
1782299381619,0.306281,-0.181855,9.156039,-0.007148,-0.014272,0.289106,-0.24375,11.56875,-40.237503
1782299381622,0.418744,-0.047856,9.07229,-0.00165,0.002221,0.293993,-0.24375,11.56875,-40.237503
1782299381628,0.418744,-0.047856,9.07229,-0.00165,0.002221,0.293993,-1.0875,11.00625,-41.606251
1782299381631,0.533599,0.038285,9.211073,-0.013257,0.034597,0.303156,-1.0875,11.00625,-41.606251
1782299381638,0.533599,0.038285,9.211073,-0.013257,0.034597,0.303156,-1.03125,8.94375,-41.175003
1782299381640,0.607777,0.150748,9.347465,-0.035248,0.078579,0.308042,-1.03125,8.94375,-41.175003
1782299381649,0.588634,0.200997,9.447963,-0.05052,0.106068,0.304988,-1.21875,9.825001,-41.025002
1782299381656,0.588634,0.200997,9.447963,-0.059683,0.113399,0.292771,-1.21875,9.825001,-41.025002
1782299381665,0.440279,0.308674,9.266109,-0.056017,0.094462,0.272612,-0.1875,11.587501,-42.056252
1782299381668,0.440279,0.308674,9.266109,-0.056017,0.094462,0.272612,-0.46875,9.525001,-40.725002
1782299381674,0.375673,0.457029,9.043577,-0.034026,0.067584,0.248789,-0.46875,9.525001,-40.725002
1782299381679,0.375673,0.457029,9.043577,-0.034026,0.067584,0.248789,0.4125,10.6875,-40.856251
1782299381682,0.375673,0.457029,9.043577,-0.002261,0.052923,0.220078,0.4125,10.6875,-40.856251
1782299381683,0.306281,0.581456,8.744473,-0.002261,0.052923,0.220078,0.4125,10.6875,-40.856251
1782299381688,0.306281,0.581456,8.744473,-0.002261,0.052923,0.220078,0.39375,10.387501,-40.106251
1782299381691,0.241675,0.650848,8.435799,0.030115,0.027267,0.196254,0.39375,10.387501,-40.106251
1782299381699,0.241675,0.650848,8.435799,0.030115,0.027267,0.196254,2.1,10.51875,-41.475002
1782299381700,0.210568,0.70349,8.189338,0.04783,0.005276,0.17182,2.1,10.51875,-41.475002
1782299381709,0.210568,0.70349,8.189338,0.049051,-0.020381,0.14372,2.1,10.51875,-41.475002
1782299381710,0.270389,0.734597,8.048162,0.049051,-0.020381,0.14372,0.54375,10.5375,-39.956253
1782299381718,0.358923,0.768096,7.997913,0.030725,-0.038096,0.115009,0.43125,8.90625,-39.806252
1782299381725,0.461815,0.808774,8.05534,-0.002261,-0.068639,0.085077,0.43125,8.90625,-39.806252
1782299381728,0.461815,0.808774,8.05534,-0.002261,-0.068639,0.085077,1.40625,12.88125,-40.837502
1782299381734,0.502493,0.823131,8.201303,-0.044411,-0.089408,0.061253,1.40625,12.88125,-40.837502
1782299381740,0.502493,0.823131,8.201303,-0.044411,-0.089408,0.061253,1.3875,12.13125,-39.787502
1782299381742,0.502493,0.823131,8.201303,-0.078008,-0.101015,0.041705,1.3875,12.13125,-39.787502
1782299381743,0.476172,0.820738,8.416657,-0.078008,-0.101015,0.041705,1.3875,12.13125,-39.787502
1782299381749,0.476172,0.820738,8.416657,-0.078008,-0.101015,0.041705,1.44375,10.668751,-40.106251
1782299381751,0.42353,0.66999,8.581762,-0.091447,-0.099182,0.025212,1.44375,10.668751,-40.106251
1782299381766,0.459422,0.672383,8.713367,-0.088393,-0.091241,0.019103,0.50625,7.89375,-40.893753
1782299381770,0.643669,0.588634,8.68226,-0.078619,-0.073526,-0.007775,-0.2625,11.26875,-39.1875
1782299381794,0.81356,0.435494,9.062719,-0.027918,-0.001444,-0.147663,0.675,11.71875,-40.537502
1782299381800,0.81356,0.435494,9.062719,-0.027918,-0.001444,-0.147663,1.29375,10.81875,-39.9375
1782299381803,0.607777,0.4666,9.019648,0.001404,0.041928,-0.189201,1.29375,10.81875,-39.9375
1782299381808,0.607777,0.4666,9.019648,0.001404,0.041928,-0.189201,1.1625,10.6875,-40.856251
1782299381811,0.586242,0.555135,8.952649,0.02706,0.073693,-0.21669,1.1625,10.6875,-40.856251
1782299381818,0.586242,0.555135,8.952649,0.02706,0.073693,-0.21669,2.15625,10.950001,-39.037502
1782299381820,0.457029,0.521635,9.065112,0.046608,0.087742,-0.247234,2.15625,10.950001,-39.037502
1782299381830,0.289532,0.564706,9.16561,0.06249,0.146385,-0.269836,0.5625,9.7875,-39.65625
1782299381837,0.248854,0.495314,9.30918,0.093034,0.171431,-0.275944,0.5625,9.7875,-39.65625
1782299381839,0.248854,0.495314,9.30918,0.093034,0.171431,-0.275944,0.73125,9.65625,-40.556252
1782299381845,0.248854,0.495314,9.30918,0.130296,0.175096,-0.274723,0.73125,9.65625,-40.556252
1782299381846,0.011964,0.765703,9.349858,0.130296,0.175096,-0.274723,0.73125,9.65625,-40.556252
1782299381849,0.011964,0.765703,9.349858,0.130296,0.175096,-0.274723,-0.45,8.775001,-40.275002
1782299381854,-0.155533,1.012164,9.47907,0.167559,0.141498,-0.271668,-0.45,8.775001,-40.275002
1782299381866,-0.100499,1.15334,9.680068,0.195048,0.117064,-0.249066,0.65625,9.637501,-37.987503
1782299381868,-0.100499,1.15334,9.680068,0.195048,0.117064,-0.249066,1.6125,9.0375,-38.90625
1782299381872,-0.07657,1.150948,9.876278,0.215817,0.117064,-0.218523,1.6125,9.0375,-38.90625
1782299381879,-0.07657,1.150948,9.876278,0.215817,0.117064,-0.218523,3.75,8.868751,-39.356251
1782299381880,0.057428,1.198804,9.708781,0.225591,0.145164,-0.180039,3.75,8.868751,-39.356251
1782299381890,0.002393,1.165305,9.636997,0.207876,0.129892,-0.137278,2.38125,10.06875,-40.256252
1782299381897,0.014357,1.124627,9.720745,0.165116,0.102403,-0.101848,2.38125,10.06875,-40.256252
1782299381898,0.014357,1.124627,9.720745,0.165116,0.102403,-0.101848,3.15,9.01875,-39.956253
1782299381905,0.059821,1.071985,10.163417,0.134572,0.047425,-0.076191,3.15,9.01875,-39.956253
1782299381908,0.059821,1.071985,10.163417,0.134572,0.047425,-0.076191,1.03125,10.087501,-40.706253
1782299381914,0.026321,0.997807,10.52952,0.122966,0.062086,-0.062752,1.03125,10.087501,-40.706253
1782299381919,0.026321,0.997807,10.52952,0.122966,0.062086,-0.062752,1.95,8.887501,-39.806252
1782299381923,-0.09332,0.839881,10.594125,0.127853,0.096295,-0.059087,1.95,8.887501,-39.806252
1782299381928,-0.09332,0.839881,10.594125,0.127853,0.096295,-0.059087,1.95,8.887501,-39.806252
1782299381931,-0.265603,0.658026,10.780765,0.129686,0.132336,-0.062752,1.95,8.887501,-39.806252
1782299381939,-0.265603,0.658026,10.780765,0.129686,0.132336,-0.062752,1.03125,8.75625,-39.206253
1782299381940,-0.222533,0.476172,10.816658,0.122966,0.132946,-0.077413,1.03125,8.75625,-39.206253
1782299381949,-0.222533,0.476172,10.816658,0.142514,0.137222,-0.085965,1.65,8.306251,-39.675003
1782299381950,-0.177069,0.394816,11.388543,0.142514,0.137222,-0.085965,1.65,8.306251,-39.675003
1782299381957,-0.023928,0.277567,11.55604,0.186496,0.18487,-0.112843,1.65,8.306251,-39.675003
1782299381966,-0.066999,0.289532,11.481863,0.243917,0.221522,-0.1385,1.21875,9.65625,-41.625
1782299381968,-0.066999,0.289532,11.481863,0.243917,0.221522,-0.1385,3.1125,9.01875,-38.90625
1782299381974,0.002393,0.509671,11.381364,0.293397,0.230074,-0.154382,3.1125,9.01875,-38.90625
1782299381979,0.002393,0.509671,11.381364,0.293397,0.230074,-0.154382,1.93125,9.9375,-40.556252
1782299381984,0.0,0.674776,11.362221,0.336158,0.200142,-0.168432,1.93125,9.9375,-40.556252
1782299381988,0.0,0.674776,11.362221,0.336158,0.200142,-0.168432,3.0375,7.85625,-40.125
1782299381992,0.074178,0.772882,11.31915,0.365479,0.162879,-0.173319,3.0375,7.85625,-40.125
1782299381999,0.074178,0.772882,11.31915,0.365479,0.162879,-0.173319,3.3,9.618751,-40.106251
1782299382001,0.198604,0.894916,11.218652,0.368534,0.12867,-0.170876,3.3,9.618751,-40.106251
1782299382010,0.299103,1.012164,11.084654,0.328827,0.098127,-0.165378,2.38125,9.0375,-39.65625
1782299382017,0.289532,1.105484,11.020048,0.251248,0.073693,-0.164156,2.38125,9.0375,-39.65625
1782299382019,0.289532,1.105484,11.020048,0.251248,0.073693,-0.164156,1.96875,9.1875,-40.575001
1782299382026,0.287139,1.194018,10.965013,0.151677,0.053534,-0.167821,1.96875,9.1875,-40.575001
1782299382028,0.287139,1.194018,10.965013,0.151677,0.053534,-0.167821,2.1,8.7375,-39.975002
1782299382034,0.284746,1.189233,10.828622,0.036223,0.029099,-0.171486,2.1,8.7375,-39.975002
1782299382041,0.284746,1.189233,10.828622,0.036223,0.029099,-0.171486,3.3375,9.1875,-41.175003
1782299382043,0.256032,1.107877,10.768801,-0.095724,-0.007553,-0.168432,3.3375,9.1875,-41.175003
1782299382049,0.256032,1.107877,10.768801,-0.095724,-0.007553,-0.168432,4.6875,8.71875,-40.275002
1782299382052,0.258425,0.926022,10.993726,-0.235612,-0.039317,-0.161713,4.6875,8.71875,-40.275002
1782299382058,0.258425,0.926022,10.993726,-0.235612,-0.039317,-0.161713,2.86875,8.7375,-40.275002
1782299382060,0.361316,0.571885,11.338294,-0.350454,-0.051535,-0.161713,2.86875,8.7375,-40.275002
1782299382073,0.461815,0.157926,11.790536,-0.417649,-0.04115,-0.168432,1.89375,9.168751,-38.587502
1782299382077,0.440279,-0.141177,12.187746,-0.423147,-0.002055,-0.183093,1.89375,9.168751,-38.587502
1782299382078,0.440279,-0.141177,12.187746,-0.423147,-0.002055,-0.183093,2.775,7.125,-40.125
1782299382086,0.586242,-0.200997,11.965212,-0.356563,0.05048,-0.195921,2.775,7.125,-40.125
1782299382088,0.586242,-0.200997,11.965212,-0.356563,0.05048,-0.195921,3.20625,8.2875,-40.725002
1782299382094,0.586242,-0.200997,11.965212,-0.238666,0.101181,-0.209971,3.20625,8.2875,-40.725002
1782299382095,0.55992,-0.200997,11.670895,-0.238666,0.101181,-0.209971,3.20625,8.2875,-40.725002
1782299382099,0.55992,-0.200997,11.670895,-0.238666,0.101181,-0.209971,3.1125,10.05,-39.65625
1782299382103,0.504886,-0.136391,11.209081,-0.084117,0.158603,-0.221577,3.1125,10.05,-39.65625
1782299382108,0.504886,-0.136391,11.209081,-0.084117,0.158603,-0.221577,2.7,9.918751,-40.856251
1782299382111,0.504886,-0.136391,11.209081,0.072875,0.216024,-0.233184,2.7,9.918751,-40.856251
1782299382112,0.356531,-0.11007,10.539091,0.072875,0.216024,-0.233184,2.7,9.918751,-40.856251
1782299382118,0.356531,-0.11007,10.539091,0.072875,0.216024,-0.233184,2.8875,8.2875,-40.275002
1782299382120,0.404387,0.179462,9.75903,0.202989,0.244124,-0.246012,2.8875,8.2875,-40.275002
1782299382130,0.509671,0.473779,9.144075,0.268963,0.253898,-0.248455,3.61875,10.06875,-41.006252
1782299382137,0.540778,0.741775,8.768402,0.252469,0.261228,-0.240514,3.61875,10.06875,-41.006252
1782299382138,0.540778,0.741775,8.768402,0.252469,0.261228,-0.240514,3.28125,8.868751,-39.056252
1782299382146,0.662812,0.937986,8.665511,0.172446,0.245346,-0.221577,3.28125,8.868751,-39.056252
1782299382149,0.662812,0.937986,8.665511,0.172446,0.245346,-0.221577,1.63125,10.087501,-40.256252
1782299382155,0.385244,1.0002,8.663118,0.044775,0.228852,-0.21669,1.63125,10.087501,-40.256252
1782299382159,0.385244,1.0002,8.663118,0.044775,0.228852,-0.21669,4.8,8.55,-39.056252
1782299382163,0.189033,1.067199,8.842579,-0.078619,0.182426,-0.206917,4.8,8.55,-39.056252
1782299382170,0.189033,1.067199,8.842579,-0.078619,0.182426,-0.206917,4.6125,9.731251,-39.1875
1782299382171,0.057428,1.079163,9.096219,-0.176969,0.145164,-0.194088,4.6125,9.731251,-39.1875
1782299382178,0.057428,1.079163,9.096219,-0.176969,0.145164,-0.194088,6.3,8.08125,-38.006252
1782299382180,0.047856,1.048056,9.345072,-0.235612,0.127449,-0.178817,6.3,8.08125,-38.006252
1782299382189,0.088534,0.916451,9.476677,-0.259435,0.139055,-0.169654,4.125,10.78125,-39.1875
1782299382197,0.088534,0.916451,9.476677,-0.259435,0.157381,-0.165989,4.125,10.78125,-39.1875
1782299382198,0.12682,0.679562,9.522141,-0.259435,0.157381,-0.165989,4.125,10.78125,-39.1875
1782299382199,0.12682,0.679562,9.522141,-0.259435,0.157381,-0.165989,4.06875,9.168751,-40.575001
1782299382206,0.131605,0.4666,9.620246,-0.247218,0.171431,-0.15988,4.06875,9.168751,-40.575001
1782299382208,0.131605,0.4666,9.620246,-0.247218,0.171431,-0.15988,4.5,8.85,-39.356251
1782299382214,0.131605,0.4666,9.620246,-0.215453,0.189146,-0.150106,4.5,8.85,-39.356251
1782299382215,0.131605,0.323031,9.80928,-0.215453,0.189146,-0.150106,4.5,8.85,-39.356251
1782299382219,0.131605,0.323031,9.80928,-0.215453,0.189146,-0.150106,3.9,9.75,-40.256252
1782299382223,0.138784,0.200997,9.866707,-0.178801,0.226409,-0.139111,3.9,9.75,-40.256252
1782299382228,0.138784,0.200997,9.866707,-0.178801,0.226409,-0.139111,4.36875,11.64375,-37.96875
1782299382232,0.071785,0.0335,9.823637,-0.15681,0.255119,-0.128726,4.36875,11.64375,-37.96875
1782299382238,0.071785,0.0335,9.823637,-0.15681,0.255119,-0.128726,3.6,8.71875,-39.206253
1782299382241,0.0335,-0.162712,9.77578,-0.162919,0.256341,-0.120785,3.6,8.71875,-39.206253
1782299382250,0.043071,-0.301496,9.790137,-0.195295,0.221522,-0.120174,4.81875,9.150001,-40.106251
1782299382259,0.086142,-0.337388,9.861922,-0.23439,0.161046,-0.12445,2.71875,10.481251,-37.068752
1782299382266,0.136391,-0.315853,9.981563,-0.252105,0.090797,-0.125061,2.71875,10.481251,-37.068752
1782299382268,0.136391,-0.315853,9.981563,-0.252105,0.090797,-0.125061,4.125,10.481251,-38.887501
1782299382283,0.107677,-0.153141,9.842779,-0.164751,-0.003887,-0.122006,5.23125,9.88125,-39.356251
1782299382289,0.107677,-0.153141,9.842779,-0.164751,-0.003887,-0.122006,3.91875,11.6625,-38.268753
1782299382292,0.074178,0.035892,9.373786,-0.074954,-0.030155,-0.120785,3.91875,11.6625,-38.268753
1782299382299,0.074178,0.035892,9.373786,-0.074954,-0.030155,-0.120785,4.4625,10.33125,-39.337502
1782299382301,0.07657,0.284746,8.85215,0.024006,-0.040539,-0.120785,4.4625,10.33125,-39.337502
1782299382310,0.059821,0.512064,8.332908,0.108305,-0.054589,-0.118952,4.425,9.88125,-38.287502
1782299382319,0.047856,0.739382,7.890236,0.155953,-0.059476,-0.117119,4.89375,10.03125,-38.4375
1782299382326,0.002393,0.933201,7.612669,0.155953,-0.071693,-0.115287,4.89375,10.03125,-38.4375
1782299382328,0.002393,0.933201,7.612669,0.155953,-0.071693,-0.115287,4.36875,10.9125,-37.518753
1782299382335,-0.062213,1.052842,7.404493,0.110749,-0.082078,-0.109178,4.36875,10.9125,-37.518753
1782299382341,-0.062213,1.052842,7.404493,0.110749,-0.082078,-0.109178,4.0875,10.462501,-37.368752
1782299382343,-0.062213,1.052842,7.404493,0.026449,-0.072915,-0.092074,4.0875,10.462501,-37.368752
1782299382344,-0.181855,1.124627,7.323137,0.026449,-0.072915,-0.092074,4.0875,10.462501,-37.368752
1782299382349,-0.181855,1.124627,7.323137,0.026449,-0.072915,-0.092074,5.26875,11.493751,-37.668751
1782299382352,-0.196211,1.11027,7.265709,-0.083506,-0.052757,-0.067639,5.26875,11.493751,-37.668751
1782299382358,-0.196211,1.11027,7.265709,-0.083506,-0.052757,-0.067639,3.65625,10.63125,-38.587502
1782299382361,-0.078963,0.90688,7.426028,-0.200792,-0.051535,-0.049924,3.65625,10.63125,-38.587502
1782299382369,-0.078963,0.90688,7.426028,-0.291811,-0.085132,-0.041983,3.65625,10.63125,-38.587502
1782299382370,-0.133998,0.92363,8.048162,-0.291811,-0.085132,-0.041983,3.975,10.931251,-39.337502
1782299382382,-0.098106,0.978664,8.706189,-0.327241,-0.106513,-0.034653,4.875,10.012501,-38.137501
1782299382386,-0.098106,0.978664,8.706189,-0.307694,-0.107123,-0.019992,4.875,10.012501,-38.137501
1782299382387,0.043071,0.926022,9.196717,-0.307694,-0.107123,-0.019992,4.875,10.012501,-38.137501
1782299382388,0.043071,0.926022,9.196717,-0.307694,-0.107123,-0.019992,5.4375,10.89375,-37.518753
1782299382395,0.136391,0.803988,9.44557,-0.249051,-0.079024,-0.006553,5.4375,10.89375,-37.518753
1782299382399,0.136391,0.803988,9.44557,-0.249051,-0.079024,-0.006553,5.4375,10.89375,-37.518753
1782299382403,0.119641,0.756132,9.459927,-0.167806,-0.042983,-0.001055,5.4375,10.89375,-37.518753
1782299382409,0.119641,0.756132,9.459927,-0.167806,-0.042983,-0.001055,4.575,9.731251,-37.6875
1782299382412,0.028714,0.734597,9.30918,-0.090226,-0.024657,0.003221,4.575,9.731251,-37.6875
1782299382418,0.028714,0.734597,9.30918,-0.090226,-0.024657,0.003221,3.525,10.78125,-38.887501
1782299382421,-0.009571,0.748953,9.184753,-0.032804,-0.030155,0.008719,3.525,10.78125,-38.887501
1782299382429,-0.021535,0.753739,9.153646,-0.007759,-0.041761,0.019714,5.15625,9.5625,-37.21875
1782299382439,0.07657,0.705883,9.249359,-0.013868,-0.039317,0.037429,4.78125,10.33125,-39.806252
1782299382446,-0.047856,0.775275,9.223038,-0.032804,-0.028322,0.056366,4.78125,10.33125,-39.806252
1782299382448,-0.047856,0.775275,9.223038,-0.032804,-0.028322,0.056366,3.7875,11.212501,-38.118752
1782299382455,-0.083749,0.734597,9.153646,-0.046244,-0.035652,0.066751,3.7875,11.212501,-38.118752
1782299382459,-0.083749,0.734597,9.153646,-0.046244,-0.035652,0.066751,5.1375,10.59375,-37.518753
1782299382463,-0.002393,0.792024,9.278073,-0.0438,-0.041761,0.070416,5.1375,10.59375,-37.518753
1782299382469,-0.002393,0.792024,9.278073,-0.0438,-0.041761,0.070416,3.95625,11.3625,-39.037502
1782299382472,0.052642,0.875773,9.471892,-0.023031,-0.032598,0.08019,3.95625,11.3625,-39.037502
1782299382482,0.114855,0.842274,9.550854,0.010567,-0.003887,0.090575,4.36875,10.6125,-36.768753
1782299382490,0.141177,0.820738,9.459927,0.039888,0.016271,0.097905,3.675,9.88125,-37.987503
1782299382500,0.100499,0.892523,9.373786,0.058214,-0.000833,0.097294,4.40625,10.6125,-38.268753
1782299382506,0.100499,0.892523,9.373786,0.077151,-0.030765,0.09424,4.40625,10.6125,-38.268753
1782299382507,0.083749,0.92363,9.471892,0.077151,-0.030765,0.09424,4.40625,10.6125,-38.268753
1782299382508,0.083749,0.92363,9.471892,0.077151,-0.030765,0.09424,4.725,10.3125,-38.287502
1782299382515,0.112463,0.981057,9.620246,0.097921,-0.04787,0.093629,4.725,10.3125,-38.287502
1782299382520,0.112463,0.981057,9.620246,0.097921,-0.04787,0.093629,3.99375,10.33125,-39.337502
1782299382524,0.112463,0.981057,9.620246,0.121133,-0.052757,0.092407,3.99375,10.33125,-39.337502
1782299382525,0.138784,1.004985,9.720745,0.121133,-0.052757,0.092407,3.99375,10.33125,-39.337502
1782299382529,0.138784,1.004985,9.720745,0.121133,-0.052757,0.092407,3.9375,11.3625,-38.568752
1782299382532,0.172283,0.997807,9.79253,0.141292,-0.058865,0.089964,3.9375,11.3625,-38.568752
1782299382538,0.172283,0.997807,9.79253,0.141292,-0.058865,0.089964,4.81875,12.225,-38.418751
1782299382541,0.198604,0.990629,9.921742,0.154731,-0.068028,0.089964,4.81875,12.225,-38.418751
1782299382550,0.232104,1.014557,10.096418,0.165116,-0.061919,0.097294,4.51875,11.493751,-37.668751
1782299382561,0.241675,1.038485,10.247166,0.180998,-0.025268,0.107679,3.675,10.33125,-38.587502
1782299382567,0.232104,0.997807,10.359629,0.2036,0.037651,0.125394,3.675,10.33125,-38.587502
1782299382569,0.232104,0.997807,10.359629,0.2036,0.037651,0.125394,5.4375,10.59375,-37.518753
1782299382575,0.215354,0.978664,10.476877,0.228646,0.101792,0.146774,5.4375,10.59375,-37.518753
1782299382580,0.215354,0.978664,10.476877,0.228646,0.101792,0.146774,4.55625,10.462501,-38.118752
1782299382591,0.157926,0.933201,10.711374,0.248804,0.148218,0.170598,3.84375,9.0,-38.137501
1782299382592,0.09332,0.887737,10.938692,0.26713,0.16349,0.1932,3.84375,9.0,-38.137501
1782299382599,0.09332,0.887737,10.938692,0.26713,0.16349,0.1932,5.475,9.8625,-37.518753
1782299382601,0.083749,0.823131,11.156438,0.289121,0.154327,0.210915,5.475,9.8625,-37.518753
1782299382609,0.083749,0.823131,11.156438,0.307447,0.115231,0.220078,5.475,9.8625,-37.518753
1782299382610,0.066999,0.775275,11.311972,0.307447,0.115231,0.220078,4.55625,10.462501,-38.118752
1782299382620,0.057428,0.772882,11.417256,0.317832,0.046204,0.222521,5.64375,10.762501,-38.887501
1782299382627,0.014357,0.870987,11.450756,0.309891,-0.036874,0.220689,5.64375,10.762501,-38.887501
1782299382628,0.014357,0.870987,11.450756,0.309891,-0.036874,0.220689,6.1125,9.712501,-38.887501
1782299382635,-0.066999,0.9667,11.38615,0.289121,-0.123006,0.218245,6.1125,9.712501,-38.887501
1782299382640,-0.066999,0.9667,11.38615,0.289121,-0.123006,0.218245,6.3,9.58125,-39.806252
1782299382644,-0.155533,1.007378,11.266509,0.254302,-0.190201,0.223743,6.3,9.58125,-39.806252
1782299382649,-0.155533,1.007378,11.266509,0.254302,-0.190201,0.223743,6.43125,10.012501,-39.1875
1782299382652,-0.212961,1.009771,11.146867,0.2036,-0.226242,0.240847,6.43125,10.012501,-39.1875
1782299382659,-0.212961,1.009771,11.146867,0.2036,-0.226242,0.240847,5.45625,9.8625,-37.21875
1782299382661,-0.289532,1.06002,11.125332,0.142514,-0.235405,0.265893,5.45625,9.8625,-37.21875
1782299382669,-0.289532,1.06002,11.125332,0.142514,-0.235405,0.265893,5.7,8.981251,-38.90625
1782299382670,-0.344566,1.162912,11.173189,0.088758,-0.213414,0.297658,5.7,8.981251,-38.90625
1782299382680,-0.318245,1.198804,11.185153,0.044775,-0.162712,0.328201,5.56875,8.85,-39.806252
1782299382689,-0.198604,1.12702,11.039191,-0.00104,-0.096128,0.359355,5.56875,9.150001,-39.806252
1782299382695,-0.028714,0.904487,10.878871,-0.078008,-0.037485,0.394174,5.56875,9.150001,-39.806252
1782299382700,-0.028714,0.904487,10.878871,-0.078008,-0.037485,0.394174,6.1875,8.700001,-39.65625
1782299382704,0.114855,0.562313,10.931513,-0.190408,0.000389,0.421663,6.1875,8.700001,-39.65625
1782299382709,0.114855,0.562313,10.931513,-0.190408,0.000389,0.421663,5.71875,8.25,-39.206253
1782299382712,0.198604,0.12682,11.311972,-0.316246,0.023602,0.435713,5.71875,8.25,-39.206253
1782299382719,0.198604,0.12682,11.311972,-0.316246,0.023602,0.435713,7.06875,9.5625,-39.806252
1782299382721,0.246461,-0.33021,11.833607,-0.426812,0.033375,0.432659,7.06875,9.5625,-39.806252
1782299382728,0.246461,-0.33021,11.833607,-0.426812,0.033375,0.432659,5.38125,9.431251,-38.887501
1782299382729,0.246461,-0.33021,11.833607,-0.497062,0.013828,0.418609,5.38125,9.431251,-38.887501
1782299382730,0.244068,-0.727418,12.199709,-0.497062,0.013828,0.418609,5.38125,9.431251,-38.887501
1782299382739,0.239282,-1.06002,12.364814,-0.507446,-0.037485,0.390509,5.38125,9.431251,-38.887501
1782299382740,0.239282,-1.06002,12.364814,-0.507446,-0.037485,0.390509,6.15,10.012501,-39.956253
1782299382746,0.239282,-1.06002,12.364814,-0.438419,-0.092463,0.352636,6.15,10.012501,-39.956253
1782299382747,0.196211,-1.287339,12.348064,-0.438419,-0.092463,0.352636,6.15,10.012501,-39.956253
1782299382749,0.196211,-1.287339,12.348064,-0.438419,-0.092463,0.352636,7.275,10.275001,-37.518753
1782299382755,0.09332,-1.289731,12.096818,-0.2912,-0.11873,0.321481,7.275,10.275001,-37.518753
1782299382758,0.09332,-1.289731,12.096818,-0.2912,-0.11873,0.321481,4.9125,9.731251,-39.1875
1782299382764,-0.002393,-1.064806,11.496219,-0.089004,-0.09735,0.29949,4.9125,9.731251,-39.1875
1782299382769,-0.002393,-1.064806,11.496219,-0.089004,-0.09735,0.29949,5.475,9.8625,-37.518753
1782299382772,-0.052642,-0.696311,10.68266,0.119912,-0.031987,0.283608,5.475,9.8625,-37.518753
1782299382778,-0.052642,-0.696311,10.68266,0.119912,-0.031987,0.283608,6.95625,10.293751,-37.518753
1782299382781,-0.083749,-0.270389,9.842779,0.290343,0.045593,0.269558,6.95625,10.293751,-37.518753
1782299382791,-0.143569,0.102891,9.120146,0.393579,0.115842,0.259173,6.3375,11.475,-38.118752
1782299382800,-0.165105,0.512064,8.431014,0.414349,0.157992,0.257341,7.275,9.84375,-37.518753
1782299382807,-0.167498,0.844666,8.230016,0.370977,0.181816,0.260395,7.275,9.84375,-37.518753
1782299382809,-0.167498,0.844666,8.230016,0.370977,0.181816,0.260395,7.3125,9.543751,-38.287502
1782299382815,-0.167498,0.844666,8.230016,0.283013,0.207472,0.254897,7.3125,9.543751,-38.287502
1782299382816,-0.198604,1.052842,8.096018,0.283013,0.207472,0.254897,7.3125,9.543751,-38.287502
