ts_ns,ax,ay,az,gx,gy,gz,mx,my,mz
1774594644342,1.0821792,3.8115692,8.66701,-0.26389378,0.36041048,-0.05009095,-23.64,-15.12,-16.44
1774594644356,1.1204864,3.7349546,8.724471,-0.27366763,0.35063666,-0.0720821,-24.539999,-15.599999,-16.859999
1774594644366,1.2737153,3.7493198,8.791509,-0.25289822,0.31398472,-0.09407325,-24.72,-15.66,-16.619999
1774594644377,1.1923125,3.787627,8.829816,-0.22357668,0.2761111,-0.11362094,-25.5,-17.22,-16.98
1774594644389,0.9720459,3.6774938,8.662222,-0.1685988,0.23457226,-0.14660765,-24.9,-16.199999,-17.1
1774594644400,0.94331545,3.5817258,8.710106,-0.17715092,0.20891592,-0.14172074,-24.42,-16.08,-17.4
1774594644410,0.91458505,3.5529952,8.834604,-0.18692477,0.20647246,-0.12950343,-23.82,-15.179999,-17.46
1774594644422,0.89064306,3.5865142,8.920795,-0.20769419,0.21502456,-0.10629055,-22.68,-15.78,-17.22
1774594644432,0.91458505,3.6056678,8.935161,-0.20647246,0.20280726,-0.10262536,-22.32,-15.78,-16.859999
1774594644442,0.94331545,3.596091,8.987833,-0.20525073,0.18692477,-0.103847094,-21.96,-15.839999,-16.92
1774594644456,0.91937345,3.6248214,8.99741,-0.20891592,0.1966986,-0.10140363,-22.02,-15.48,-17.279999
1774594644466,0.90979666,3.596091,8.963891,-0.2125811,0.1966986,-0.10629055,-22.199999,-15.24,-17.88
1774594644475,0.8810662,3.5769374,8.839393,-0.23701571,0.17592919,-0.11362094,-22.439999,-14.759999,-18.779999
1774594644489,0.91458505,3.6343982,8.772355,-0.24801129,0.16126843,-0.11728613,-22.38,-14.7,-18.119999
1774594644499,1.1731589,3.8546648,8.604761,-0.26145032,0.13316862,-0.13805555,-22.26,-14.04,-17.46
1774594644509,1.3263878,4.0318356,8.485051,-0.31031954,0.04886922,-0.24190263,-21.9,-13.799999,-17.22
1774594644520,1.4460979,4.209007,8.365341,-0.34330627,0.021991149,-0.30543262,-21.539999,-13.559999,-17.88
1774594644531,1.5514427,4.2999864,8.259995,-0.39706242,-0.017104227,-0.40683624,-21.48,-13.32,-18.24
1774594644541,1.4748282,3.98874,8.197746,-0.535118,-0.073303826,-0.5852089,-20.4,-12.599999,-17.94
1774594644551,1.2449849,3.6631286,8.212111,-0.6230826,-0.080634214,-0.65484756,-20.52,-12.54,-17.58
1774594644561,1.0342951,3.3566709,8.259995,-0.7171558,-0.09040806,-0.69027776,-20.46,-12.48,-17.279999
1774594644571,0.8283938,3.0454245,8.556877,-0.79168135,-0.0720821,-0.68661255,-21.24,-13.2,-17.699999
1774594644581,0.5315128,2.3989902,9.006987,-0.86009824,0.013439035,-0.6072,-21.6,-12.9,-18.9
1774594644591,0.39264908,2.111686,9.208099,-0.8527679,0.05375614,-0.54367006,-21.779999,-13.0199995,-19.68
1774594644601,0.2873042,1.8962077,9.471462,-0.8258898,0.0842994,-0.49480084,-21.72,-13.2,-19.14
1774594644612,0.39743748,2.054225,9.9550905,-0.7648033,0.1160644,-0.4361578,-21.48,-12.84,-18.84
1774594644622,0.4357447,2.231396,9.9790325,-0.57910025,0.15271631,-0.3726278,-21.84,-13.32,-18.779999
1774594644633,0.45968673,2.3319526,9.830592,-0.50579643,0.15515977,-0.3652974,-21.84,-12.84,-19.08
1774594644643,0.47884035,2.4372973,9.504981,-0.42394048,0.12217305,-0.35918877,-21.9,-13.0199995,-19.32
1774594644654,0.37349546,2.3463178,9.02614,-0.3408628,-0.012217305,-0.36041048,-21.66,-12.54,-18.48
1774594644664,0.30645782,2.480393,8.671799,-0.32375857,-0.096516706,-0.36774087,-21.72,-12.36,-18.119999
1774594644675,0.40701428,2.2840683,9.107543,-0.3200934,-0.19303341,-0.38606682,-22.439999,-12.42,-18.0
1774594644685,0.7278373,1.8962077,9.361329,-0.3200934,-0.15271631,-0.3921755,-22.56,-12.42,-18.06
1774594644695,1.2354081,1.6232687,9.083601,-0.35918877,-0.15271631,-0.50335294,-22.199999,-12.12,-18.6
1774594644705,0.7038953,1.958457,9.193734,-0.39095375,-0.09407325,-0.5900958,-22.08,-12.0,-18.84
1774594644715,0.19153613,2.1883004,9.006987,-0.4092797,-0.058643065,-0.5571091,-22.26,-12.059999,-19.5
1774594644725,-0.05746084,2.2026656,8.7292595,-0.43982297,-0.06719518,-0.40439278,-21.9,-11.88,-20.58
1774594644735,0.05267244,2.0350714,8.815451,-0.44348818,-0.087964594,-0.32742378,-21.6,-12.059999,-20.4
1774594644745,0.20111294,1.9057846,8.930372,-0.44226643,-0.08552113,-0.28588495,-21.539999,-12.12,-20.16
1774594644755,0.41180268,1.9776106,9.006987,-0.42149702,-0.06352998,-0.24801129,-21.72,-11.94,-19.74
1774594644765,0.6799533,2.2744915,8.987833,-0.37995818,-0.02443461,-0.26389378,-21.24,-11.82,-19.38
1774594644776,0.770933,2.3223755,9.030929,-0.37140608,-0.02565634,-0.29565877,-20.4,-10.679999,-19.859999
1774594644787,0.8331822,2.303222,9.150639,-0.3567453,-0.030543262,-0.3494149,-19.8,-10.38,-19.859999
1774594644798,0.7134721,1.7860745,8.892065,-0.37873647,-0.0061086523,-0.39461896,-20.039999,-9.84,-20.22
1774594644808,0.545878,1.6519991,8.561666,-0.43371433,-0.02076942,-0.3811799,-20.279999,-10.32,-20.22
1774594644820,0.41180268,1.5753847,8.48984,-0.5021312,-0.058643065,-0.35063666,-20.46,-10.559999,-20.1
1774594644830,0.47405192,1.5179238,8.676587,-0.6096435,-0.10995574,-0.32620203,-20.1,-10.679999,-19.56
1774594644841,0.5506664,1.4077905,8.748413,-0.65118235,-0.13194689,-0.3371976,-20.22,-10.44,-19.38
1774594644852,0.5602432,1.3072342,8.863335,-0.6768387,-0.14538592,-0.35796702,-20.699999,-10.559999,-19.74
1774594644862,0.6895301,1.091756,9.131485,-0.6792821,-0.119729586,-0.38606682,-21.119999,-10.08,-20.22
1774594644875,0.61291564,1.1109096,9.083601,-0.67073005,-0.09896017,-0.38240165,-21.48,-10.26,-20.039999
1774594644885,0.45968673,1.0151415,9.093178,-0.66706485,-0.07452556,-0.3555236,-21.66,-9.84,-20.16
1774594644896,0.45010993,0.82360536,8.959103,-0.68661255,-0.014660766,-0.3042109,-21.6,-9.66,-19.859999
1774594644907,0.33518824,0.8283938,8.834604,-0.70249504,-0.012217305,-0.27488935,-21.24,-8.88,-20.22
1774594644917,0.34476504,0.79966336,8.566454,-0.7318166,-0.017104227,-0.23457226,-21.24,-9.3,-20.039999
1774594644928,0.34476504,0.7230489,8.432379,-0.752586,-0.035430185,-0.21991149,-21.48,-9.0,-20.1
1774594644939,0.37828386,0.7038953,8.303091,-0.77946407,-0.09162979,-0.2125811,-21.9,-9.42,-20.039999
1774594644950,0.34955344,0.5363012,8.298303,-0.829555,-0.22968534,-0.18936823,-22.439999,-9.179999,-20.16
1774594644961,0.38307226,0.45489833,8.394072,-0.86498517,-0.30176744,-0.17592919,-21.84,-8.5199995,-20.46
1774594644972,0.35434186,0.38307226,8.5473,-0.8857546,-0.35918877,-0.16982053,-21.96,-8.4,-19.74
1774594644982,0.32561144,0.25378537,9.050082,-0.91996306,-0.47769663,-0.13683382,-21.779999,-7.3199997,-19.14
1774594644992,0.24899697,0.110133275,9.442732,-0.9089675,-0.4813618,-0.12095132,-22.14,-7.2599998,-18.66
1774594645002,0.2825158,-0.019153614,9.701305,-0.8881981,-0.45448375,-0.096516706,-22.199999,-6.8999996,-18.9
1774594645012,0.34955344,-0.110133275,9.911995,-0.8552113,-0.40439278,-0.06352998,-22.38,-7.08,-18.9
1774594645022,0.45489833,-0.22984336,9.969456,-0.8026769,-0.28344148,-0.013439035,-22.68,-6.48,-18.779999
1774594645033,0.5506664,-0.2777274,9.835381,-0.7867944,-0.2125811,-0.0036651916,-22.8,-6.12,-19.08
1774594645043,0.49799395,-0.2777274,9.701305,-0.7867944,-0.15760323,-0.014660766,-22.74,-5.4,-19.56
1774594645053,0.59376204,-0.35434186,9.572019,-0.8136725,-0.13927728,-0.052534413,-23.46,-6.6,-22.98
1774594645063,0.40701428,-0.46447513,9.595961,-0.816116,-0.13439035,-0.06963864,-23.58,-6.54,-22.859999
1774594645073,0.33039984,-0.8714894,9.720459,-0.8222246,-0.10140363,-0.04642576,-24.06,-6.54,-22.38
1774594645084,0.1436521,-1.5035586,9.89763,-0.8881981,0.039095376,0.064751714,-23.82,-6.6,-21.48
1774594645094,0.21068975,-1.7525556,10.199299,-1.078788,0.40561453,0.44593164,-23.64,-5.7599998,-20.46
1774594645106,0.7230489,-1.067814,9.969456,-1.105666,0.47403142,0.5925393,-23.46,-5.7,-20.039999
1774594645116,1.7190368,0.20590134,10.108319,-1.0164797,0.41050145,0.5119051,-23.699999,-5.58,-20.699999
1774594645126,1.8052281,0.39264908,10.19451,-0.94806284,0.39706242,0.33475417,-23.58,-4.92,-20.52
1774594645137,1.6136919,0.30166942,10.242394,-0.86620694,0.40194935,0.16982053,-23.519999,-4.5,-21.06
1774594645148,1.3982137,0.15322891,10.204087,-0.81000733,0.40194935,0.080634214,-22.8,-3.4199998,-20.64
1774594645158,1.0582372,-0.2825158,10.007763,-0.7086037,0.3494149,-0.040317107,-22.92,-3.0,-20.939999
1774594645168,0.842759,-0.34476504,9.9790325,-0.68661255,0.33475417,-0.065973446,-22.98,-2.76,-21.06
1774594645179,0.7086837,-0.6607997,10.0029745,-0.6817256,0.3286455,-0.08307768,-23.039999,-2.9399998,-21.18
1774594645189,0.29688102,-0.320823,10.342952,-0.6658431,0.344528,-0.112399206,-22.5,-2.6399999,-21.0
1774594645200,0.320823,-0.35913026,10.237606,-0.67073005,0.39706242,-0.13805555,-22.56,-2.3999999,-21.0
1774594645210,0.36391866,-0.46447513,9.964667,-0.6939429,0.4447099,-0.1881465,-22.5,-2.22,-20.46
1774594645221,0.39743748,-0.6799533,10.117896,-0.7318166,0.45081854,-0.23090707,-22.56,-2.1,-21.0
1774594645231,0.21068975,-0.61291564,10.577583,-0.7367035,0.49113566,-0.26267207,-21.96,-2.1,-20.76
1774594645241,0.2825158,-0.9816227,10.802638,-0.7049385,0.54367006,-0.28344148,-21.72,-2.04,-20.939999
1774594645252,0.2825158,-1.0726024,11.056423,-0.6450737,0.5900958,-0.31887165,-21.96,-1.92,-21.42
1774594645263,0.10055647,-1.2306197,10.994174,-0.5045747,0.64996064,-0.35185838,-22.08,-1.74,-21.66
1774594645274,-0.08619126,-1.1923125,10.941502,-0.42760566,0.6658431,-0.36163223,-22.02,-1.74,-21.779999
1774594645285,-0.30645782,-1.0821792,11.003751,-0.36774087,0.657291,-0.35185838,-21.96,-1.56,-21.119999
1774594645295,-0.30166942,-0.9672575,10.716447,-0.22113322,0.5729916,-0.36285394,-20.76,-1.0799999,-21.06
1774594645306,-0.49320555,-0.6799533,10.28549,-0.15271631,0.41783184,-0.3652974,-20.52,-0.71999997,-21.24
1774594645317,-0.44532153,-1.115698,10.251971,-0.103847094,0.18448131,-0.33841935,-19.56,-0.42,-21.9
1774594645328,-0.49799395,-1.163582,10.443508,-0.080634214,0.10873401,-0.30909783,-19.859999,-0.06,-21.9
1774594645338,-0.46447513,-1.1731589,10.625467,-0.06352998,0.07941248,-0.28099802,-19.8,-0.17999999,-21.539999
1774594645348,-0.4213795,-0.9864111,10.749966,-0.039095376,0.062308256,-0.25045475,-20.22,-0.65999997,-21.06
1774594645358,0.1340753,-0.7326257,10.644621,-0.009773844,0.065973446,-0.3005457,-21.18,-2.04,-21.48
1774594645369,0.15801731,-0.58418524,10.55843,-0.004886922,0.06841691,-0.3359759,-21.359999,-2.28,-22.02
1774594645379,0.12928689,-0.45489833,10.457873,-0.007330383,0.08674286,-0.38606682,-21.48,-2.1599998,-22.26
1774594645390,0.0,-0.50757074,10.271125,-0.012217305,0.07819075,-0.45570546,-20.699999,-1.3199999,-20.88
1774594645400,-0.06703765,-0.62728083,10.232818,-0.008552114,0.035430185,-0.47403142,-20.76,-1.26,-20.82
1774594645411,-0.12449849,-0.7086837,10.25676,-0.0036651916,-0.015882496,-0.47036624,-20.4,-1.02,-20.16
1774594645421,-0.22984336,-0.866701,10.290278,0.02687807,-0.10995574,-0.41538838,-20.88,-1.1999999,-20.88
1774594645432,0.019153614,-0.92416185,10.261548,0.02565634,-0.13072516,-0.38240165,-20.58,-0.78,-20.64
1774594645443,0.047884032,-0.8619126,10.323798,0.030543262,-0.14905111,-0.36163223,-20.82,-1.26,-20.939999
1774594645453,0.10534488,-0.6991069,10.414778,0.043982297,-0.16615535,-0.35063666,-20.76,-1.92,-21.359999
1774594645464,0.110133275,-0.4357447,10.43872,0.080634214,-0.19547687,-0.37140608,-20.16,-2.1599998,-20.88
1774594645475,0.29688102,-1.0151415,10.275913,0.089186326,-0.20769419,-0.37873647,-19.92,-1.92,-21.359999
1774594645485,0.36391866,-1.1683705,10.103531,0.089186326,-0.21624629,-0.3811799,-20.16,-1.8,-20.82
1774594645496,-0.009576807,-0.8714894,10.108319,0.07819075,-0.312763,-0.42271876,-20.46,-1.8,-20.82
1774594645507,-0.17238252,-0.79487497,10.141838,0.08552113,-0.35796702,-0.40683624,-20.88,-2.1,-20.46
1774594645518,-0.20590134,-0.7661445,10.180145,0.09162979,-0.3848451,-0.3933972,-20.88,-2.52,-20.58
1774594645528,-0.2777274,-0.89064306,10.462662,0.13683382,-0.4642576,-0.37384954,-20.939999,-2.52,-21.119999
1774594645540,-0.33039984,-0.9768343,10.606314,0.17470746,-0.48258355,-0.35796702,-20.699999,-1.9799999,-21.0
1774594645550,-0.38307226,-0.91458505,10.515334,0.29077184,-0.46792278,-0.2968805,-21.539999,-2.6399999,-20.58
1774594645561,-0.34955344,-0.8714894,10.261548,0.31887165,-0.49235737,-0.2687807,-21.779999,-2.46,-20.699999
1774594645572,-0.272939,-0.8762778,10.007763,0.31398472,-0.5180137,-0.25778514,-22.14,-2.8799999,-20.82
1774594645582,0.02873042,-0.5554548,9.816227,0.25900686,-0.59864795,-0.1966986,-22.439999,-2.76,-21.0
1774594645593,0.090979666,-0.50757074,10.007763,0.23579398,-0.65240407,-0.172264,-22.439999,-3.06,-20.699999
1774594645604,0.009576807,-0.5410896,10.371682,0.22968534,-0.68416905,-0.14782938,-22.859999,-3.3,-20.939999
1774594645614,-0.15801731,-0.79966336,10.831368,0.344528,-0.68416905,-0.1282817,-23.16,-3.4199998,-21.0
1774594645625,-0.23463176,-0.93852705,10.941502,0.4129449,-0.64996064,-0.1160644,-23.519999,-3.78,-20.58
1774594645636,-0.11492168,-0.9959879,10.745177,0.49480084,-0.5290093,-0.09407325,-23.16,-3.54,-20.58
1774594645646,0.79966336,-1.2880806,8.738836,0.4972443,-0.2406809,-0.10140363,-23.34,-3.4199998,-20.279999
1774594645656,1.0773908,-0.80924016,8.082825,0.26633725,-0.47525316,-0.2565634,-23.58,-3.78,-20.1
1774594645667,1.2306197,-0.1340753,8.499416,0.04642576,-0.59864795,-0.35796702,-23.939999,-4.02,-19.38
1774594645677,1.7956513,0.22984336,8.39886,-0.1600467,-0.77579886,-0.41538838,-24.06,-4.5,-18.72
1774594645689,1.8626889,-0.08140286,8.710106,-0.31764993,-0.9016371,-0.45814893,-24.0,-4.02,-18.72
1774594645700,1.7286136,-0.24899697,8.781932,-0.42638394,-0.96761054,-0.47891834,-24.66,-4.68,-18.9
1774594645710,1.460463,-0.49799395,9.519346,-0.5180137,-0.9944886,-0.4605924,-25.5,-5.22,-18.6
1774594645720,1.3455414,-0.6655881,9.849746,-0.52412236,-0.893085,-0.44348818,-25.8,-5.16,-19.02
1774594645732,1.5275006,-0.9624691,9.974244,-0.49602258,-0.81245077,-0.45204028,-25.8,-4.92,-18.84
1774594645742,1.5370775,-1.3503298,10.180145,-0.41905355,-0.689056,-0.43493605,-25.56,-3.54,-19.32
1774594645754,1.4652514,-1.2737153,10.400413,-0.33841935,-0.57787853,-0.4129449,-25.74,-3.54,-19.08
1774594645764,2.0207062,-1.2593501,10.237606,-0.2687807,-0.47403142,-0.40194935,-26.039999,-3.48,-19.08
1774594645776,1.9680338,-0.7086837,10.342952,-0.017104227,-0.2846632,-0.36041048,-26.76,-4.14,-18.72
1774594645787,2.3319526,-0.5602432,10.28549,0.11728613,-0.14905111,-0.34697145,-27.24,-4.74,-18.0
1774594645798,2.2409728,-0.5267244,10.16578,0.2125811,-0.04642576,-0.33475417,-27.18,-4.44,-18.119999
1774594645809,2.1691468,-0.59855044,9.744401,0.408058,0.18448131,-0.20158553,-27.72,-4.38,-18.48
1774594645820,2.2266076,-0.48362875,9.5385,0.4728097,0.28099802,-0.12095132,-27.359999,-4.02,-18.9
1774594645830,2.3511062,-0.29209262,9.155427,0.5290093,0.39706242,-0.035430185,-28.08,-5.4,-18.779999
1774594645840,2.1691468,-0.25378537,9.050082,0.52412236,0.46670106,-0.015882496,-27.9,-5.7599998,-18.779999
1774594645850,2.0015526,-0.33518824,8.959103,0.50579643,0.535118,0.009773844,-27.72,-6.06,-19.08
1774594645861,2.207454,-0.50757074,8.944737,0.31764993,0.7819075,0.12950343,-26.88,-5.52,-18.9
1774594645873,2.2361844,-0.25378537,8.714894,0.19303341,0.8405506,0.14660765,-26.939999,-5.7,-18.84
1774594645884,2.1499932,0.05267244,8.6574335,0.10873401,0.81489426,0.13927728,-27.0,-6.12,-18.72
1774594645893,2.0925324,0.37349546,8.576031,-0.052534413,0.66706485,0.103847094,-26.519999,-6.42,-19.08
1774594645904,2.0733786,0.40701428,8.6574335,-0.07086037,0.57787853,0.08552113,-25.74,-5.8799996,-18.96
1774594645915,1.9919758,0.40222588,9.040505,-0.06352998,0.48991394,0.061086524,-25.38,-5.3399997,-19.74
1774594645925,1.8626889,0.35434186,9.409213,-0.029321533,0.47158796,0.03176499,-24.96,-4.62,-20.16
1774594645936,1.757344,0.2681506,9.844957,0.10140363,0.5742133,-0.043982297,-25.8,-5.22,-21.24
1774594645947,1.5514427,0.22505496,9.935937,0.1881465,0.6963864,-0.080634214,-25.68,-5.1,-20.58
1774594645957,1.3072342,0.39743748,9.907207,0.35430184,0.93462384,-0.08552113,-24.48,-4.8599997,-20.58
1774594645968,1.1923125,0.33997664,9.701305,0.44715336,0.956615,-0.095294975,-23.939999,-4.74,-20.64
1774594645979,1.0103531,0.29209262,9.821015,0.5363397,0.84421575,-0.12339478,-23.76,-4.8599997,-21.0
1774594645989,0.7374141,0.25378537,9.931149,0.61575216,0.7464773,-0.172264,-23.46,-4.92,-20.88
1774594645999,0.4357447,0.34476504,9.481039,0.70249504,0.63407815,-0.21380283,-23.699999,-5.8799996,-21.359999
1774594646009,0.39264908,0.46447513,9.232041,0.71959925,0.5497787,-0.17959438,-23.279999,-6.0,-21.42
1774594646020,0.33997664,0.58418524,9.030929,0.7147123,0.48747048,-0.14538592,-22.98,-5.7599998,-21.66
1774594646031,0.10534488,0.7613561,8.461109,0.59742624,0.40194935,-0.080634214,-22.199999,-5.64,-21.48
1774594646042,-0.21547815,0.80445176,8.346188,0.5204572,0.27122417,-0.05131268,-22.38,-6.12,-21.66
1774594646053,-0.45968673,0.8283938,8.394072,0.453262,0.1600467,-0.017104227,-22.26,-6.24,-21.6
1774594646064,-0.51714754,0.90021986,8.485051,0.36896262,0.029321533,0.043982297,-22.14,-5.94,-22.08
1774594646075,-0.33039984,0.94331545,8.781932,0.22113322,-0.17104226,0.13439035,-21.66,-5.64,-21.9
1774594646087,-0.2873042,0.91937345,9.059659,0.17348573,-0.20891592,0.15149458,-21.66,-5.7,-21.48
1774594646098,0.22505496,0.93852705,9.313444,0.08307768,-0.22968534,0.10629055,-21.72,-5.3399997,-21.84
1774594646108,0.46926352,0.90021986,9.452309,0.0720821,-0.23579398,0.035430185,-22.02,-5.3399997,-22.26
1774594646118,0.25378537,0.89064306,9.811439,0.112399206,-0.07819075,-0.10751228,-22.26,-5.7,-22.02
1774594646129,0.15801731,0.8810662,9.873688,0.13927728,0.12583824,-0.052534413,-21.9,-5.46,-21.42
1774594646141,0.2633622,0.81881696,9.787497,0.14782938,0.2761111,0.008552114,-21.48,-5.22,-21.0
1774594646151,0.8619126,0.545878,9.346964,0.11728613,0.34697145,0.080634214,-21.359999,-5.4,-21.539999
1774594646161,0.16759412,0.94331545,9.064447,0.12950343,0.32742378,0.035430185,-21.72,-5.94,-21.779999
1774594646172,-0.7613561,1.2785037,8.801085,0.20891592,0.27488935,-0.007330383,-22.02,-6.18,-22.08
1774594646182,-1.091756,0.79966336,9.006987,0.3555236,0.010995574,0.19303341,-22.38,-6.48,-22.26
1774594646193,-0.9528923,0.80445176,9.088389,0.3555236,-0.08674286,0.2932153,-22.32,-6.3599997,-22.38
1774594646205,-0.7134721,1.0486604,9.006987,0.36163223,-0.22724187,0.38240165,-22.14,-6.12,-22.14
1774594646216,-0.06703765,1.4413095,9.174581,0.40194935,-0.44959682,0.44593164,-21.9,-5.46,-22.38
1774594646228,0.2633622,1.5993267,9.093178,0.40317106,-0.48747048,0.4886922,-21.66,-5.4,-22.5
1774594646238,0.6464345,1.757344,8.901642,0.3371976,-0.4728097,0.5131268,-22.98,-6.6,-22.38
1774594646250,0.79487497,1.8914193,8.90643,0.29443705,-0.44348818,0.5021312,-23.039999,-6.48,-21.72
1774594646262,0.93373865,2.0733786,9.021352,0.2406809,-0.38973203,0.4801401,-23.22,-6.3599997,-21.24
1774594646273,0.7661445,1.8579005,9.246407,0.10751228,-0.17959438,0.43860126,-23.16,-5.7,-21.6
1774594646284,0.46447513,1.2689269,9.461885,-0.009773844,-0.059864793,0.44715336,-23.519999,-5.7599998,-21.42
1774594646294,0.545878,0.56982,10.060435,-0.31887165,0.017104227,0.52290064,-23.22,-4.92,-20.76
1774594646304,0.82360536,0.5410896,10.55843,-0.43004912,-0.035430185,0.5534439,-23.519999,-4.7999997,-20.82
1774594646315,0.9720459,0.40701428,12.08593,-0.5131268,-0.1441642,0.5656612,-23.22,-4.2599998,-20.82
1774594646326,1.9632454,0.16280572,12.674904,-0.35796702,-0.19058995,0.5363397,-24.06,-3.84,-21.9
1774594646337,2.5809495,-0.095768064,12.804191,-0.17592919,-0.15393804,0.5021312,-24.779999,-4.08,-21.66
1774594646348,2.791639,-0.1388637,12.741941,0.012217305,-0.17104226,0.39950588,-25.8,-3.9599998,-22.8
1774594646359,2.681506,-0.38307226,12.41633,0.35063666,-0.11484267,0.18692477,-27.06,-4.02,-23.34
1774594646370,2.681506,-0.38307226,12.41633,0.35063666,-0.11484267,0.18692477,-27.06,-4.02,-23.34
1774594646380,2.0159178,-0.10055647,11.621455,0.68294734,0.119729586,0.1282817,-25.68,-3.48,-22.5
1774594646391,1.5945383,0.062249243,10.189722,0.816116,0.31642818,0.19425514,-23.939999,-4.02,-20.76
1774594646401,1.388637,0.07182605,9.595961,0.784351,0.41783184,0.26389378,-24.0,-4.62,-20.76
1774594646411,1.2114661,-0.01436521,9.011775,0.6731735,0.46181414,0.30665436,-23.82,-4.8599997,-21.06
1774594646421,0.78050977,-0.45489833,8.374918,0.2846632,0.3652974,0.33964106,-23.88,-4.56,-22.02
1774594646432,0.61770403,-0.62728083,8.513782,0.04153884,0.19792034,0.3408628,-23.939999,-4.68,-22.619999
1774594646442,0.47405192,-0.7757214,9.121908,-0.11728613,-0.0061086523,0.3213151,-24.06,-4.98,-22.5
1774594646453,0.4309563,-0.92416185,9.749189,-0.15271631,-0.14660765,0.2968805,-23.939999,-4.8599997,-22.56
1774594646463,0.38307226,-1.091756,10.299856,-0.08674286,-0.2968805,0.25045475,-24.119999,-5.04,-22.8
1774594646473,0.39743748,-1.3694834,10.836157,0.17104226,-0.35430184,0.172264,-23.4,-3.72,-22.859999
1774594646485,0.48362875,-1.436521,10.658986,0.30298916,-0.2846632,0.1282817,-23.58,-3.84,-22.38
1774594646496,0.49799395,-1.4939818,10.007763,0.43249258,-0.105068825,0.052534413,-23.279999,-3.9599998,-21.84
1774594646507,0.40701428,-1.532289,9.662998,0.4373795,-0.040317107,0.035430185,-23.4,-3.84,-21.72
1774594646518,0.2777274,-1.5705963,9.3661175,0.41416663,0.030543262,0.02443461,-23.279999,-3.6599998,-21.779999
1774594646529,0.15801731,-1.5945383,8.896853,0.32986724,0.14538592,0.013439035,-24.0,-4.44,-22.32
1774594646541,0.1340753,-1.6041151,8.805874,0.26633725,0.21868975,0.008552114,-23.58,-4.14,-22.26
1774594646551,-0.11492168,-1.6136919,8.815451,0.16737708,0.33108896,0.014660766,-24.119999,-4.2599998,-22.859999
1774594646561,-0.22984336,-1.6328455,8.815451,0.15027285,0.34330627,0.030543262,-23.82,-4.14,-22.32
1774594646571,-0.30166942,-1.6232687,8.743625,0.13683382,0.33475417,0.061086524,-24.06,-4.3199997,-22.38
1774594646582,-0.34476504,-1.4939818,8.537724,0.10262536,0.25778514,0.09896017,-22.859999,-3.6,-21.539999
1774594646593,-0.4213795,-1.388637,8.51857,0.08307768,0.16371189,0.112399206,-22.5,-3.1799998,-22.199999
1774594646603,-0.40701428,-1.3311762,8.643068,0.058643065,0.07574729,0.13805555,-22.439999,-3.48,-22.32
1774594646613,-0.23463176,-1.2593501,8.66701,0.029321533,0.019547688,0.16371189,-22.619999,-3.72,-22.8
1774594646624,0.18674773,-1.1923125,8.643068,-0.081855945,-0.04886922,0.16737708,-23.88,-4.2599998,-22.859999
1774594646634,0.29209262,-1.1779473,8.748413,-0.17715092,-0.047647487,0.15882497,-24.06,-4.2,-22.98
1774594646644,0.34955344,-1.1444284,8.901642,-0.25289822,-0.029321533,0.14905111,-24.0,-4.02,-22.68
1774594646655,0.29209262,-1.0726024,9.351752,-0.3885103,0.028099801,0.13439035,-22.8,-2.9399998,-22.74
1774594646664,0.20111294,-1.0534488,9.639056,-0.3885103,0.028099801,0.13439035,-22.5,-2.8799999,-22.619999
1774594646676,0.1340753,-1.0582372,9.840169,-0.4129449,0.12461651,0.1563815,-22.92,-3.0,-22.74
1774594646686,-0.02873042,-1.1204864,10.065224,-0.30665436,0.15027285,0.19547687,-23.76,-3.48,-23.46
1774594646697,-0.15801731,-1.0965444,10.0029745,-0.22724187,0.13439035,0.21624629,-24.119999,-3.6,-23.58
1774594646707,-0.19153613,-1.0342951,9.849746,-0.17470746,0.1001819,0.23945917,-24.42,-4.08,-23.16
1774594646718,-0.11492168,-0.8523358,9.356541,-0.119729586,0.009773844,0.29077184,-24.0,-3.24,-23.16
1774594646728,0.009576807,-0.7422025,8.494628,-0.11484267,-0.08674286,0.30543262,-24.06,-3.0,-22.619999
1774594646741,0.2681506,-0.48362875,8.973468,-0.1685988,-0.11728613,0.30665436,-23.699999,-2.52,-22.859999
1774594646753,0.4357447,-0.4213795,9.121908,-0.3359759,0.05131268,0.25045475,-23.519999,-1.92,-22.439999
1774594646763,0.31603462,-0.50757074,9.232041,-0.36041048,0.09407325,0.2284636,-23.34,-2.04,-22.8
1774594646773,0.23942018,-0.59376204,9.303867,-0.36896262,0.14049901,0.21991149,-23.34,-1.74,-22.26
1774594646783,0.33518824,-0.7757214,9.385271,-0.37018433,0.16126843,0.20158553,-23.4,-1.26,-22.56
1774594646794,0.39743748,-0.8810662,9.528923,-0.37751472,0.15027285,0.19058995,-23.16,-0.17999999,-22.859999
1774594646805,0.4261679,-0.94810385,9.68694,-0.3848451,0.13927728,0.18325958,-22.68,0.29999998,-22.859999
1774594646815,0.62249243,-0.9576807,9.916783,-0.36774087,0.096516706,0.1600467,-23.1,-0.84,-23.22
1774594646826,0.6560113,-0.93373865,9.993398,-0.35185838,0.0842994,0.13561209,-23.039999,-0.48,-23.22
1774594646837,0.521936,-1.0342951,9.902418,-0.3494149,0.111177474,0.09407325,-23.279999,-0.29999998,-23.699999
1774594646847,0.38307226,-1.0103531,9.907207,-0.35063666,0.13805555,0.080634214,-22.98,0.65999997,-23.34
1774594646876,0.272939,-0.90021986,9.998186,-0.38240165,0.3042109,0.02687807,-23.34,-0.06,-23.34
1774594646886,0.16280572,-0.94810385,9.878476,-0.3652974,0.3933972,-0.009773844,-23.4,-0.48,-22.98
1774594646896,0.11492168,-0.9576807,9.835381,-0.35308012,0.41538838,-0.019547688,-23.34,-0.48,-22.56
1774594646906,0.095768064,-0.9864111,9.768343,-0.33841935,0.42638394,-0.02565634,-22.859999,0.12,-22.68
1774594646916,0.090979666,-0.9720459,9.753978,-0.32620203,0.42149702,-0.034208454,-23.4,0.12,-22.74
1774594646926,-0.038307227,-0.90021986,9.667787,-0.30176744,0.376293,-0.037873644,-22.74,0.78,-23.16
1774594646937,-0.12449849,-0.8619126,9.610326,-0.28710666,0.3323107,-0.036651913,-22.8,0.9,-23.279999
1774594646948,-0.18674773,-0.80924016,9.595961,-0.27488935,0.28221974,-0.03176499,-22.199999,1.26,-23.16
1774594646958,-0.22984336,-0.59855044,9.586384,-0.24923302,0.19547687,-0.019547688,-22.14,1.68,-23.22
1774594646968,-0.21068975,-0.49320555,9.572019,-0.2284636,0.14905111,-0.02076942,-22.859999,1.3199999,-23.1
1774594646978,-0.23942018,-0.46926352,9.533711,-0.20647246,0.10995574,-0.028099801,-22.98,1.5,-22.8
1774594646989,-0.35434186,-0.4261679,9.380483,-0.19547687,0.057421334,-0.034208454,-23.46,1.1999999,-22.68
1774594647001,-0.39743748,-0.39264908,9.289502,-0.2125811,0.03176499,-0.034208454,-23.1,1.26,-23.1
1774594647010,-0.4165911,-0.37349546,9.198523,-0.25900686,0.004886922,-0.034208454,-23.039999,1.1999999,-23.519999
1774594647021,-0.31603462,-0.40222588,9.203311,-0.40561453,-0.04153884,-0.04886922,-22.08,1.92,-22.92
1774594647031,-0.22026655,-0.545878,9.41879,-0.50335294,-0.062308256,-0.052534413,-21.779999,2.3999999,-22.92
1774594647041,-0.1436521,-0.6991069,9.706094,-0.56077427,-0.05375614,-0.05497787,-21.779999,2.8799999,-22.98
1774594647051,-0.08619126,-0.81402856,10.01734,-0.6072,-0.017104227,-0.059864793,-21.84,2.58,-23.22
1774594647061,-0.16280572,-0.91937345,10.448297,-0.5681047,0.08674286,-0.07819075,-22.8,1.86,-22.98
1774594647072,-0.23463176,-0.93373865,10.601525,-0.50823987,0.12095132,-0.080634214,-22.74,1.74,-23.039999
1774594647082,-0.30645782,-0.93852705,10.654198,-0.39584067,0.16249016,-0.07696902,-23.1,1.9799999,-23.1
1774594647092,-0.320823,-0.91458505,10.644621,-0.25411993,0.17837265,-0.06719518,-23.039999,2.22,-23.64
1774594647102,0.01436521,-0.80924016,10.400413,0.037873644,0.16249016,-0.05375614,-23.039999,2.7,-23.58
1774594647113,0.29209262,-0.7613561,10.0987425,0.18936823,0.13439035,-0.073303826,-22.98,2.9399998,-23.16
1774594647123,0.63206923,-0.6943185,9.662998,0.312763,0.09407325,-0.103847094,-22.68,3.12,-23.16
1774594647133,1.1683705,-0.49799395,8.810662,0.43004912,-0.004886922,-0.17959438,-22.56,3.36,-23.039999
1774594647143,1.3790601,-0.44532153,8.465898,0.43371433,-0.06719518,-0.21502456,-22.199999,3.24,-23.1
1774594647153,1.5514427,-0.46926352,8.197746,0.40317106,-0.105068825,-0.24190263,-22.439999,3.1799998,-23.16
1774594647163,1.6519991,-0.5554548,8.001422,0.31887165,-0.13072516,-0.27488935,-22.26,3.48,-23.22
1774594647173,1.7190368,-0.641646,7.905654,0.19547687,-0.13805555,-0.3005457,-22.26,3.06,-23.22
1774594647184,1.7429788,-0.62249243,8.00621,-0.0720821,-0.15027285,-0.32375857,-22.619999,2.7,-23.34
1774594647194,1.6472107,-0.56982,8.269572,-0.21624629,-0.1563815,-0.3323107,-22.5,2.7,-23.46
1774594647204,1.5514427,-0.5410896,8.580819,-0.33353242,-0.15271631,-0.3494149,-22.619999,2.52,-23.4
1774594647215,1.3072342,-0.48841715,9.284714,-0.453262,-0.112399206,-0.37507126,-22.56,2.3999999,-23.16
1774594647225,1.1348516,-0.44532153,9.548077,-0.4813618,-0.073303826,-0.3885103,-22.68,1.9799999,-22.56
1774594647235,0.8714894,-0.34955344,9.753978,-0.49480084,-0.04520403,-0.39828414,-22.74,2.22,-22.38
1774594647246,0.641646,-0.2777274,9.868899,-0.50335294,-0.02565634,-0.39950588,-23.039999,1.9799999,-21.779999
1774594647256,0.08619126,-0.16280572,10.141838,-0.53878313,0.02443461,-0.39706242,-23.76,1.74,-22.14
1774594647268,-0.22505496,-0.11492168,10.309433,-0.55955255,0.047647487,-0.39584067,-24.06,1.68,-22.32
1774594647278,-0.7086837,-0.06703765,10.682928,-0.5815437,0.08552113,-0.3848451,-24.119999,2.04,-21.96
1774594647289,-0.92895025,0.019153614,10.955867,-0.5681047,0.105068825,-0.38606682,-23.699999,3.0,-21.9
1774594647300,-1.1109096,0.009576807,11.21444,-0.5326745,0.119729586,-0.38606682,-23.64,3.12,-22.199999
1774594647310,-1.2306197,-0.009576807,11.453861,-0.44959682,0.13439035,-0.37873647,-23.039999,3.72,-22.439999
1774594647320,-1.2593501,0.02873042,11.616667,-0.17592919,0.15882497,-0.3481932,-22.38,4.14,-22.38
1774594647331,-1.1444284,0.019153614,11.473015,-0.05375614,0.13439035,-0.33353242,-22.02,4.5,-21.66
1774594647342,-0.9911995,0.019153614,11.209652,0.10751228,0.064751714,-0.30665436,-22.92,3.84,-21.42
1774594647352,-0.5506664,-0.02873042,10.577583,0.3555236,-0.095294975,-0.25411993,-23.519999,3.3,-21.539999
1774594647363,-0.37828386,-0.047884032,10.237606,0.4654793,-0.172264,-0.21624629,-23.699999,3.3,-21.9
1774594647374,-0.047884032,0.0,9.672575,0.6206391,-0.22724187,-0.13561209,-23.039999,4.02,-22.14
1774594647384,0.11492168,0.062249243,9.409213,0.65484756,-0.21502456,-0.10995574,-23.279999,3.72,-22.56
1774594647394,0.24420857,0.15322891,9.088389,0.6768387,-0.17715092,-0.0842994,-23.46,3.6599998,-22.38
1774594647404,0.32561144,0.21068975,8.810662,0.6743952,-0.12705997,-0.062308256,-23.82,3.06,-22.5
1774594647415,0.4309563,0.33039984,8.346188,0.6133087,-0.034208454,-0.028099801,-23.88,2.7,-22.08
1774594647425,0.47884035,0.4357447,8.192958,0.5448918,0.02687807,-0.012217305,-23.82,2.22,-22.439999
1774594647436,0.545878,0.51235914,8.082825,0.47158796,0.07086037,-0.008552114,-23.76,1.8,-22.26
1774594647446,0.641646,0.5554548,8.049306,0.32986724,0.13316862,-0.02321288,-23.34,1.86,-22.14
1774594647456,0.60333884,0.56982,8.12592,0.25045475,0.16493362,-0.035430185,-23.279999,1.5,-22.02
1774594647467,0.2825158,0.4405331,8.451532,0.1966986,0.19792034,-0.032986723,-23.279999,1.92,-21.84
1774594647478,0.82360536,0.6512229,8.403648,0.11484267,0.18325958,0.0012217305,-23.46,1.62,-22.56
1774594647488,0.91458505,1.0342951,8.566454,0.0842994,0.14782938,-0.04886922,-23.039999,2.34,-22.56
1774594647499,0.7613561,1.1540052,8.734048,0.057421334,0.13927728,-0.09773844,-23.22,2.22,-22.98
1774594647510,0.48362875,1.0390835,8.868123,0.019547688,0.14172074,-0.13439035,-23.1,1.9799999,-23.1
1774594647521,0.019153614,0.81402856,9.188946,-0.059864793,0.16493362,-0.10262536,-23.22,1.86,-22.8
1774594647532,-0.14844051,0.81402856,9.346964,-0.081855945,0.16126843,-0.07086037,-23.1,1.74,-23.1
1774594647544,-0.31603462,0.8523358,9.749189,-0.10873401,0.13561209,0.019547688,-23.22,1.1999999,-22.74
1774594647555,-0.320823,0.8571242,9.921572,-0.10629055,0.12705997,0.04886922,-23.34,1.3199999,-22.74
1774594647566,-0.33997664,0.90021986,10.093954,-0.09896017,0.119729586,0.07452556,-23.46,1.0799999,-22.859999
1774594647577,-0.47405192,0.9768343,10.376471,-0.061086524,0.12217305,0.103847094,-23.46,1.4399999,-22.74
1774594647587,-0.48362875,0.9624691,10.472239,-0.043982297,0.119729586,0.10995574,-23.1,1.92,-22.439999
1774594647597,-0.47884035,0.9959879,10.601525,-0.009773844,0.10140363,0.119729586,-23.4,1.92,-22.08
1774594647608,-0.49320555,1.0007763,10.888829,0.10873401,0.09285152,0.13927728,-22.68,3.06,-22.32
1774594647618,-0.35434186,0.9911995,10.7356,0.1966986,0.07574729,0.15760323,-22.74,3.12,-22.68
1774594647630,-0.23463176,1.0486604,10.539276,0.28099802,0.043982297,0.172264,-22.5,3.0,-22.08
1774594647640,0.023942016,1.0630256,10.01734,0.36774087,-0.008552114,0.18692477,-22.859999,2.1599998,-22.08
1774594647651,-0.25378537,0.23942018,10.079589,0.3323107,0.018325957,0.22479841,-22.5,2.52,-22.38
1774594647662,0.17717093,1.0821792,9.485827,0.25900686,0.002443461,0.28221974,-21.84,3.12,-22.56
1774594647674,0.92416185,1.8866309,9.873688,0.24678956,-0.2284636,0.204029,-21.9,3.54,-22.859999
1774594647685,0.866701,1.3263878,10.237606,0.1685988,-0.18081611,0.16615535,-22.439999,3.0,-22.92
1774594647695,1.1683705,0.7613561,10.611102,0.002443461,-0.13805555,0.15149458,-22.8,2.8799999,-22.199999
1774594647706,1.2545617,0.6703765,10.927136,-0.11728613,-0.18325958,0.112399206,-23.039999,2.6399999,-22.26
1774594647717,1.316811,0.36870706,11.592725,-0.21135938,-0.25045475,0.06841691,-23.1,2.1599998,-21.9
1774594647727,1.5514427,-0.18674773,12.909535,-0.19425514,-0.33108896,0.008552114,-22.92,2.34,-22.38
1774594647737,1.6472107,-0.34476504,13.28782,-0.08674286,-0.3359759,-0.04153884,-23.16,2.58,-22.5
1774594647747,1.6424223,-0.51235914,13.40753,0.06352998,-0.30909783,-0.095294975,-23.34,2.9399998,-22.56
1774594647758,1.2641385,-0.6895301,12.923901,0.33841935,-0.20647246,-0.15760323,-24.0,3.0,-22.8
1774594647768,1.1540052,-0.7422025,12.248735,0.4642576,-0.15515977,-0.1563815,-23.939999,3.0,-22.56
1774594647778,0.9911995,-0.6799533,11.645397,0.5338962,-0.15027285,-0.14538592,-24.0,3.24,-22.32
1774594647790,0.6751649,-0.7613561,10.601525,0.5876524,-0.06352998,-0.10751228,-24.06,2.82,-21.72
1774594647800,0.4405331,-1.1971009,10.117896,0.5045747,-0.0012217305,-0.087964594,-24.24,2.04,-21.66
1774594647811,0.18674773,-1.6663644,9.825804,0.39461896,0.030543262,-0.081855945,-23.46,2.22,-21.66
1774594647822,-0.15801731,-2.0829554,9.797073,0.22235495,0.028099801,-0.0842994,-23.699999,1.9799999,-21.9
1774594647832,-0.6895301,-2.4612393,10.577583,0.032986723,-0.0720821,-0.08674286,-23.64,1.5,-22.26
1774594647842,-0.80924016,-2.6384103,11.080365,0.073303826,-0.12217305,-0.081855945,-24.18,1.1999999,-22.439999
1774594647853,-0.8379706,-2.743755,11.362882,0.21380283,-0.17348573,-0.07696902,-24.359999,1.0799999,-22.199999
1774594647864,-0.7038953,-2.9017725,11.080365,0.5729916,-0.19547687,-0.08674286,-24.72,1.38,-21.84
1774594647875,-0.60812724,-2.9640217,10.477027,0.7538077,-0.18936823,-0.1001819,-24.779999,1.0799999,-21.84
1774594647886,-0.63206923,-2.992752,9.883265,0.8588765,-0.1881465,-0.11362094,-25.08,0.59999996,-22.14
1774594647896,-0.6751649,-2.9161377,8.695741,0.86132,-0.18570304,-0.096516706,-24.779999,0.12,-22.14
1774594647907,-0.63206923,-2.8203697,8.298303,0.784351,-0.19547687,-0.07574729,-25.32,-0.65999997,-21.48
1774594647918,-0.61770403,-2.681506,7.9487495,0.6743952,-0.2003638,-0.05375614,-24.84,-0.12,-21.6
1774594647929,-0.5793968,-2.3223755,7.666234,0.4642576,-0.19303341,-0.0012217305,-25.08,-0.42,-21.6
1774594647940,-0.545878,-2.1404164,7.6853876,0.35308012,-0.16982053,0.030543262,-24.779999,-0.12,-22.14
1774594647951,-0.51714754,-1.8195933,7.800309,0.20280726,-0.11728613,0.080634214,-25.019999,-0.71999997,-22.14
1774594647961,-0.51235914,-1.757344,7.8769236,0.14294247,-0.09407325,0.10873401,-24.9,-0.65999997,-22.26
1774594647974,-0.48362875,-1.6950948,7.943961,0.089186326,-0.06841691,0.13683382,-24.779999,-0.35999998,-21.96
1774594647984,-0.37828386,-1.4508862,8.025364,-0.007330383,-0.028099801,0.17104226,-25.14,-0.78,-22.02
1774594647995,-0.32561144,-1.3694834,8.078036,-0.06719518,-0.0061086523,0.18081611,-25.08,-0.35999998,-22.14
1774594648007,-0.21547815,-1.2737153,8.197746,-0.13927728,0.012217305,0.18203785,-25.08,-0.48,-22.5
1774594648018,0.090979666,-1.2497733,8.542512,-0.25045475,0.014660766,0.16493362,-25.439999,-0.29999998,-21.779999
1774594648030,0.17717093,-1.2689269,8.801085,-0.29810223,0.030543262,0.15149458,-25.14,-0.12,-21.66
1774594648041,0.24420857,-1.2593501,9.150639,-0.3359759,0.02076942,0.14049901,-25.019999,0.06,-21.6
1774594648052,0.24899697,-1.2497733,9.3182335,-0.34330627,0.02443461,0.14538592,-24.9,0.42,-21.539999
1774594648064,0.2633622,-1.2306197,9.471462,-0.344528,0.028099801,0.15271631,-25.199999,0.29999998,-22.08
1774594648076,0.2633622,-1.2210429,9.773131,-0.33108896,0.042760566,0.16615535,-25.199999,1.14,-21.779999
1774594648087,0.25857377,-1.163582,9.907207,-0.312763,0.05497787,0.16737708,-24.6,1.5,-21.779999
1774594648098,0.15801731,-1.1252748,10.156203,-0.23457226,0.057421334,0.16371189,-24.6,1.3199999,-21.3
1774594648109,0.15801731,-1.1348516,10.199299,-0.1600467,0.058643065,0.15760323,-24.72,0.9,-21.3
1774594648119,0.15322891,-1.1779473,10.0269165,-0.02565634,0.02321288,0.14172074,-25.5,0.65999997,-21.359999
1774594648129,0.1340753,-1.2210429,9.835381,0.032986723,0.008552114,0.13561209,-25.26,0.96,-21.3
1774594648140,0.12449849,-1.2306197,9.643845,0.06719518,-0.007330383,0.13316862,-24.779999,1.4399999,-20.82
1774594648153,0.11492168,-1.2162545,9.270349,0.07819075,-0.04520403,0.13072516,-24.48,1.4399999,-20.82
1774594648164,0.1340753,-1.1923125,9.212888,0.06352998,-0.05497787,0.13439035,-24.18,1.92,-20.88
1774594648175,0.14844051,-1.1587936,9.217676,0.056199603,-0.064751714,0.13805555,-24.66,1.86,-21.0
1774594648185,0.1388637,-1.1779473,9.289502,0.06719518,-0.09040806,0.15271631,-24.84,1.38,-20.939999
1774594648196,0.16280572,-1.1875241,9.323022,0.087964594,-0.11362094,0.16615535,-24.84,1.56,-21.359999
1774594648207,0.17717093,-1.2689269,9.078813,0.12461651,-0.17959438,0.19425514,-24.359999,2.46,-21.3
1774594648218,0.24899697,-1.2210429,8.413225,0.10751228,-0.2443461,0.19792034,-24.42,2.58,-21.779999
1774594648231,0.36870706,-0.9624691,8.75799,0.014660766,-0.3286455,0.18570304,-24.779999,2.1599998,-21.96
1774594648241,0.44532153,-0.81881696,9.490616,-0.26267207,-0.07941248,0.12950343,-25.619999,1.4399999,-22.26
1774594648251,0.19153613,-0.81881696,9.835381,-0.3213151,0.009773844,0.09040806,-25.199999,2.04,-21.9
1774594648261,-0.02873042,-0.8619126,10.060435,-0.3286455,0.057421334,0.07452556,-25.08,2.7,-21.72
1774594648271,-0.062249243,-0.80445176,10.342952,-0.25289822,0.112399206,0.06719518,-24.779999,2.9399998,-21.6
1774594648281,0.038307227,-0.80445176,10.34774,-0.19792034,0.103847094,0.06352998,-25.439999,2.3999999,-21.9
1774594648291,0.10055647,-0.80445176,10.295067,-0.15760323,0.09162979,0.062308256,-25.8,2.1599998,-22.02
1774594648301,0.15801731,-0.7565677,10.204087,-0.10873401,0.06352998,0.061086524,-25.98,1.9799999,-22.02
1774594648312,0.320823,-0.5554548,9.988609,-0.039095376,-0.019547688,0.058643065,-25.439999,2.28,-22.14
1774594648322,0.4261679,-0.46447513,9.883265,-0.008552114,-0.043982297,0.05009095,-25.08,2.3999999,-21.9
1774594648332,0.46926352,-0.4261679,9.80665,0.012217305,-0.057421334,0.039095376,-25.08,2.7,-21.539999
1774594648342,0.5506664,-0.22505496,9.667787,0.037873644,-0.019547688,0.014660766,-25.8,2.46,-21.359999
1774594648370,0.6607997,0.17717093,9.428367,0.019547688,0.14172074,-0.089186326,-26.279999,1.74,-21.779999
1774594648380,0.6703765,0.20590134,9.323022,0.017104227,0.1685988,-0.119729586,-25.38,2.3999999,-21.359999
1774594648390,0.6512229,-0.033518825,9.270349,-0.02321288,0.18448131,-0.1966986,-25.32,2.46,-21.18
1774594648400,0.59376204,-0.12449849,9.337387,-0.04520403,0.17592919,-0.21746802,-25.26,2.6399999,-21.48
1774594648411,0.521936,-0.17238252,9.476251,-0.062308256,0.1563815,-0.23090707,-25.619999,1.9799999,-21.84
1774594648421,0.40222588,-0.40222588,9.610326,-0.07452556,0.09285152,-0.2321288,-25.619999,2.28,-22.08
1774594648431,0.37349546,-0.56982,9.662998,-0.081855945,0.06719518,-0.22602014,-25.32,1.92,-21.84
1774594648442,0.29688102,-0.7230489,9.701305,-0.09896017,0.017104227,-0.20891592,-25.32,1.92,-22.14
1774594648452,0.25378537,-0.8475474,9.816227,-0.12339478,-0.036651913,-0.18448131,-25.439999,1.74,-22.199999
1774594648462,0.19632454,-0.8331822,10.223241,-0.15271631,-0.05375614,-0.15027285,-25.68,1.62,-21.9
1774594648472,0.12928689,-0.81402856,10.424355,-0.14049901,-0.02443461,-0.13194689,-25.8,1.68,-21.6
1774594648482,0.062249243,-0.79966336,10.510546,-0.103847094,0.015882496,-0.10995574,-25.56,2.04,-21.9
1774594648492,-0.0047884034,-0.81402856,10.443508,-0.058643065,0.039095376,-0.09040806,-25.74,1.86,-21.84
1774594648503,-0.047884032,-0.61291564,10.1226845,0.065973446,0.09040806,-0.03176499,-24.9,3.12,-22.26
1774594648513,-0.02873042,-0.48841715,9.835381,0.105068825,0.09162979,-0.010995574,-24.84,2.8799999,-22.26
1774594648523,0.0047884034,-0.38307226,9.461885,0.13927728,0.0720821,0.018325957,-24.779999,3.12,-22.92
1774594648533,0.038307227,-0.31124622,9.174581,0.14294247,0.035430185,0.042760566,-25.26,2.8799999,-22.8
1774594648543,0.1436521,-0.20111294,8.911219,0.08307768,-0.032986723,0.09162979,-25.38,2.3999999,-22.26
1774594648553,0.1388637,-0.17238252,8.916007,0.029321533,-0.05375614,0.118507855,-25.5,2.04,-22.08
1774594648563,0.08140286,-0.20111294,8.99741,-0.02565634,-0.064751714,0.15271631,-25.439999,1.92,-21.779999
1774594648574,-0.019153614,-0.36391866,9.255983,-0.10873401,-0.06719518,0.23945917,-25.5,2.04,-20.88
1774594648584,0.038307227,-0.35913026,9.466674,-0.13683382,-0.06352998,0.28710666,-25.32,2.46,-20.64
1774594648595,0.17238252,-0.31124622,9.734824,-0.14905111,-0.02687807,0.32253686,-25.439999,2.3999999,-21.06
1774594648605,0.31603462,-0.2873042,9.945514,-0.15149458,0.02443461,0.33841935,-25.56,2.3999999,-21.72
1774594648615,0.36391866,-0.34476504,9.864111,-0.10873401,0.064751714,0.3408628,-25.68,2.6399999,-21.96
1774594648625,0.34955344,-0.33997664,9.840169,-0.09162979,0.062308256,0.33475417,-25.68,2.58,-21.96
1774594648635,0.39743748,-0.2825158,9.825804,-0.07452556,0.065973446,0.3200934,-25.859999,2.6399999,-21.539999
1774594648645,0.46926352,-0.2825158,9.825804,-0.058643065,0.06719518,0.30176744,-25.619999,2.76,-20.88
1774594648655,0.5746084,-0.34476504,9.830592,-0.010995574,0.06963864,0.27366763,-25.439999,3.78,-21.42
1774594648666,0.58897364,-0.35913026,9.902418,0.018325957,0.09162979,0.27000242,-25.32,3.72,-21.42
1774594648677,0.60333884,-0.33518824,9.883265,0.05497787,0.11728613,0.27366763,-25.74,2.82,-21.6
1774594648687,0.58897364,-0.320823,9.787497,0.089186326,0.12583824,0.27488935,-25.56,2.28,-21.119999
1774594648697,0.6847417,-0.35913026,9.662998,0.14905111,0.13072516,0.28221974,-25.56,2.82,-21.42
1774594648708,0.82360536,-0.4261679,9.701305,0.16493362,0.15882497,0.2883284,-25.26,3.24,-21.96
1774594648719,1.067814,-0.5554548,9.44752,0.17715092,0.13683382,0.2919936,-25.32,3.6599998,-22.26
1774594648729,1.1923125,-0.5746084,9.552865,0.1563815,0.17348573,0.2846632,-24.779999,4.2599998,-21.96
1774594648741,1.2258313,-0.59376204,9.615114,0.14172074,0.21868975,0.26511553,-24.3,4.92,-21.9
1774594648751,1.2354081,-0.56982,9.629479,0.13927728,0.2443461,0.2443461,-23.76,5.2799997,-22.56
1774594648761,0.92416185,-0.62249243,9.907207,0.16126843,0.28099802,0.19058995,-24.18,4.56,-22.98
1774594648772,0.78050977,-0.59376204,10.141838,0.18936823,0.30298916,0.18570304,-24.6,3.78,-23.039999
1774594648783,0.78529817,-0.5410896,10.453085,0.24923302,0.32742378,0.17959438,-24.9,3.4199998,-23.039999
1774594648793,0.90500826,-0.39264908,10.70687,0.39461896,0.45937067,0.16126843,-24.24,3.48,-22.98
1774594648804,0.94331545,-0.37828386,10.515334,0.43860126,0.5131268,0.15027285,-23.939999,3.9599998,-22.26
1774594648816,0.93852705,-0.36870706,9.888053,0.44837508,0.5742133,0.10873401,-23.64,4.2599998,-21.66
1774594648826,0.8762778,-0.32561144,9.629479,0.39950588,0.54367006,0.087964594,-23.82,3.78,-21.539999
1774594648837,0.6703765,-0.2873042,9.68694,0.3200934,0.46670106,0.058643065,-23.82,3.48,-22.14
1774594648847,0.37828386,-0.29209262,10.117896,0.27488935,0.376293,0.043982297,-23.34,3.48,-22.26
1774594648857,0.110133275,-0.320823,11.142614,0.33108896,0.32498032,0.043982297,-22.68,3.3,-22.38
1774594648868,0.0047884034,-0.32561144,11.429919,0.43004912,0.3652974,0.04153884,-22.439999,2.9399998,-21.96
1774594648880,-0.095768064,-0.51235914,11.319786,0.6291912,0.49113566,0.04520403,-23.16,1.74,-22.08
1774594648891,-0.19153613,-0.4405331,10.955867,0.7293731,0.53023106,0.052534413,-23.46,1.26,-22.32
1774594648901,-0.24899697,-0.34955344,10.836157,0.79779,0.50946164,0.04642576,-22.859999,1.86,-22.68
1774594648913,-0.5554548,0.076614454,10.472239,0.8906415,0.54367006,0.064751714,-22.32,1.62,-24.0
1774594648923,-0.521936,0.2777274,10.079589,0.9236283,0.59742624,0.06719518,-22.02,1.5,-24.119999
1774594648934,-0.7182605,0.110133275,9.68694,0.9272934,0.5900958,0.06841691,-22.26,0.59999996,-24.119999
1774594648946,-1.0103531,0.21547815,9.346964,0.91751957,0.52778757,0.09040806,-20.82,1.62,-23.58
1774594648958,-1.1109096,0.31124622,9.509769,0.9272934,0.4166101,0.09896017,-20.58,1.14,-23.46
1774594648970,-1.2593501,0.45489833,9.624691,1.0103711,0.44226643,0.14660765,-20.4,0.53999996,-23.939999
1774594648981,-1.2354081,0.6368576,9.232041,1.0482447,0.48380527,0.17104226,-20.279999,0.12,-24.539999
1774594648991,-1.6376339,0.45489833,8.327033,1.028697,0.49235737,0.24801129,-19.02,0.29999998,-25.019999
1774594649002,-1.6903064,0.5267244,8.231265,0.9981538,0.37018433,0.2883284,-18.96,-0.35999998,-25.14
1774594649012,-1.7286136,0.61770403,8.734048,0.9761627,0.23701571,0.3323107,-18.359999,-0.17999999,-25.199999
1774594649023,-1.4556746,0.89064306,8.6574335,0.9773844,0.2883284,0.3726278,-18.6,-0.84,-25.32
1774594649034,-1.340753,1.1779473,8.063671,0.91751957,0.4642576,0.39950588,-18.6,-0.96,-25.08
1774594649045,-1.3311762,1.316811,7.6470804,0.8405506,0.52778757,0.40194935,-18.66,-1.8,-24.9
1774594649055,-1.5801731,1.6041151,7.153875,0.6609562,0.3933972,0.39706242,-17.52,-1.8,-24.48
1774594649066,-1.5035586,2.1212628,7.326257,0.55833083,0.35308012,0.3921755,-17.82,-2.58,-24.72
1774594649076,-1.9919758,1.4796166,7.5225816,0.47158796,0.38362336,0.39095375,-17.76,-2.76,-25.26
1774594649088,-2.2840683,1.2018893,7.5800424,0.39950588,0.408058,0.43127087,-18.06,-2.9399998,-25.68
1774594649136,-1.6567876,1.9009962,8.939949,0.12339478,0.5497787,0.63529986,-16.38,-2.58,-25.38
1774594649146,-1.757344,1.8866309,8.939949,0.111177474,0.5338962,0.6401868,-16.8,-2.76,-25.56
1774594649156,-1.7621324,1.9057846,8.992621,0.10873401,0.48991394,0.65240407,-16.5,-2.22,-25.8
1774594649167,-1.7477672,1.910573,8.99741,0.118507855,0.40439278,0.675617,-17.16,-3.1799998,-25.92
1774594649177,-1.8626889,1.8962077,9.212888,0.14172074,0.32986724,0.72326446,-16.02,-2.46,-25.98
1774594649187,-1.9967642,1.8483237,9.165004,0.14660765,0.3481932,0.75991637,-16.44,-3.6,-25.68
1774594649198,-2.1068976,1.7764976,8.791509,0.13316862,0.3652974,0.8063421,-15.96,-2.8799999,-25.56
1774594649208,-2.0494366,1.8818425,8.748413,0.07452556,0.30176744,0.91507614,-15.719999,-2.9399998,-25.74
1774594649218,-2.0111294,1.8722657,8.767567,0.05009095,0.25289822,0.9761627,-15.599999,-2.34,-26.099998
1774594649228,-2.006341,1.9297266,8.614338,0.03176499,0.2406809,1.0128145,-16.02,-2.58,-26.039999
1774594649238,-1.934515,1.9919758,8.37013,-0.015882496,0.19547687,1.070236,-15.36,-2.22,-26.279999
1774594649248,-1.5658079,2.0973208,8.7771435,-0.12339478,-0.010995574,1.1508701,-13.74,-0.84,-25.5
1774594649258,-1.5179238,2.0159178,9.078813,-0.13805555,-0.029321533,1.1618657,-13.259999,-0.53999996,-26.34
1774594649268,-1.460463,1.9249382,9.241618,-0.15149458,-0.009773844,1.174083,-13.44,-0.71999997,-26.34
1774594649279,-1.3215994,1.8722657,9.442732,-0.18936823,0.09407325,1.1704178,-15.059999,-1.9799999,-26.58
1774594649289,-1.3790601,1.8818425,9.356541,-0.204029,0.15393804,1.1569787,-14.82,-1.8,-25.859999
1774594649300,-1.4317327,1.8962077,9.284714,-0.2125811,0.19914207,1.1447614,-14.58,-1.38,-25.5
1774594649311,-1.4030021,1.8387469,9.3182335,-0.22357668,0.24190263,1.1301007,-13.5,-0.42,-25.32
1774594649321,-1.4173675,1.7190368,9.160215,-0.23335053,0.27366763,1.1191051,-13.44,0.24,-25.38
1774594649332,-1.6232687,2.006341,8.829816,-0.30909783,0.36774087,1.102001,-13.62,0.78,-25.74
1774594649343,-1.661576,2.0494366,8.714894,-0.34574974,0.36896262,1.097114,-13.86,0.48,-25.74
1774594649354,-1.6472107,2.0207062,8.743625,-0.43493605,0.312763,1.0946705,-14.46,-0.84,-25.38
1774594649364,-1.6232687,2.030283,8.801085,-0.46792278,0.27122417,1.1007792,-14.46,-0.24,-25.26
1774594649376,-1.508347,1.9776106,8.825027,-0.50946164,0.16249016,1.110553,-13.559999,0.42,-25.199999
1774594649386,-1.4700398,1.9249382,8.944737,-0.5314528,0.09773844,1.1129965,-13.32,1.1999999,-25.32
1774594649396,-1.3742718,1.8866309,9.093178,-0.54733527,0.05131268,1.1166617,-12.84,1.74,-25.56
1774594649406,-1.2545617,1.8722657,9.222465,-0.5522222,0.008552114,1.1154399,-12.96,2.46,-26.039999
1774594649416,-1.0295067,1.8674773,9.495404,-0.54000485,-0.043982297,1.1007792,-12.78,2.8799999,-25.56
1774594649427,-0.93373865,1.8962077,9.490616,-0.54733527,-0.03176499,1.0922271,-13.32,2.76,-25.5
1774594649438,-0.8331822,1.9057846,9.519346,-0.56321776,-0.028099801,1.0726794,-13.0199995,3.54,-25.439999
1774594649449,-0.6512229,1.8243817,9.80665,-0.59620446,-0.015882496,1.0189233,-13.44,3.4199998,-25.56
1774594649460,-0.56982,1.8052281,9.921572,-0.6035349,0.0012217305,0.9981538,-13.0199995,3.72,-25.74
1774594649470,-0.34476504,1.7956513,10.141838,-0.6096435,0.02565634,0.9224065,-13.32,3.84,-25.32
1774594649480,-0.272939,1.8148049,10.309433,-0.59620446,0.017104227,0.88453287,-13.559999,4.5,-25.14
1774594649491,-0.23942018,1.8195933,10.553641,-0.5644395,0.0012217305,0.82833326,-13.559999,4.98,-24.359999
1774594649502,-0.20111294,1.8579005,10.692505,-0.5216789,0.013439035,0.77213365,-13.139999,4.92,-24.539999
1774594649512,-0.24420857,1.8579005,10.764331,-0.46303585,0.032986723,0.6805039,-12.78,4.74,-24.72
1774594649523,-0.22984336,1.8483237,10.864887,-0.42271876,0.02443461,0.63285637,-13.139999,4.68,-25.08
1774594649534,-0.24420857,1.8339585,10.989386,-0.37507126,0.02076942,0.5888741,-12.719999,5.52,-24.96
1774594649545,-0.25857377,1.8962077,10.984597,-0.29810223,0.040317107,0.52290064,-12.059999,6.6,-25.38
1774594649557,-0.22026655,1.9440918,10.994174,-0.25534168,0.04520403,0.47647488,-11.58,6.7799997,-25.14
1774594649568,-0.20590134,1.9776106,11.008539,-0.21624629,0.05497787,0.42638394,-11.88,7.2599998,-25.32
1774594649578,-0.39264908,1.982399,10.907983,-0.16737708,0.07819075,0.34574974,-11.759999,7.74,-25.26
1774594649589,-0.46926352,1.9776106,10.951078,-0.13927728,0.081855945,0.31398472,-12.179999,7.7999997,-25.68
1774594649599,-0.56982,1.9440918,11.233594,-0.06352998,0.07941248,0.26633725,-12.78,6.7799997,-25.619999
1774594649610,-0.59855044,1.910573,11.243171,0.0061086523,0.08552113,0.2443461,-12.84,6.24,-25.619999
1774594649620,-0.59855044,1.934515,11.176133,0.08307768,0.08307768,0.22724187,-12.24,6.7799997,-25.199999
1774594649630,-0.49799395,2.0159178,10.740389,0.21868975,0.06719518,0.19303341,-12.12,6.96,-24.84
1774594649641,-0.46926352,2.006341,10.58716,0.27366763,0.007330383,0.16493362,-11.759999,7.2599998,-24.72
1774594649651,-0.41180268,1.9871874,10.520123,0.3042109,-0.02565634,0.14294247,-11.94,6.66,-25.14
1774594649662,-0.2825158,1.982399,10.43872,0.3371976,-0.036651913,0.112399206,-11.7,7.3799996,-25.32
1774594649673,0.009576807,1.9871874,10.299856,0.3848451,-0.04642576,0.02565634,-11.639999,6.66,-25.38
1774594649684,0.110133275,1.9776106,10.199299,0.4007276,-0.043982297,-0.017104227,-11.5199995,6.7799997,-25.019999
1774594649694,0.31124622,1.9536686,9.921572,0.43127087,-0.061086524,-0.14049901,-11.4,6.6,-24.9
1774594649705,0.46926352,1.9776106,9.821015,0.43371433,-0.08307768,-0.20647246,-11.7,6.18,-25.32
1774594649715,0.6368576,2.0350714,9.816227,0.43493605,-0.089186326,-0.267559,-12.059999,5.7599998,-25.5
1774594649725,0.7134721,2.078167,9.811439,0.4361578,-0.111177474,-0.35918877,-12.12,5.52,-25.619999
1774594649735,0.7134721,2.087744,9.811439,0.44104472,-0.17715092,-0.5180137,-12.3,5.4,-25.68
1774594649745,0.7374141,2.0398598,9.835381,0.44837508,-0.24678956,-0.59986967,-12.179999,5.58,-25.32
1774594649755,0.78529817,2.0159178,9.969456,0.47403142,-0.32986724,-0.6731735,-12.599999,5.16,-25.5
1774594649765,0.8858546,1.9776106,10.0748005,0.50946164,-0.39584067,-0.7367035,-12.66,4.92,-25.199999
1774594649776,1.1731589,1.9009962,10.338163,0.6243043,-0.49602258,-0.8222246,-13.0199995,3.78,-25.56
1774594649786,1.4460979,1.9728222,10.390836,0.7293731,-0.54000485,-0.8723156,-12.9,4.2,-25.56
1774594649796,1.6424223,2.0638018,10.228029,0.82344633,-0.5815437,-0.91629785,-12.96,4.2,-25.8
1774594649806,1.7669208,2.0925324,9.940725,0.93951076,-0.6084218,-0.97494096,-12.96,4.62,-25.98
1774594649816,1.9153614,2.2457612,8.959103,1.0665708,-0.5558874,-1.0848967,-13.5,4.02,-26.46
1774594649830,1.9297266,2.3511062,8.523358,1.0580186,-0.52656585,-1.1252137,-13.74,3.78,-26.4
1774594649840,1.8052281,2.633622,8.049306,0.90041536,-0.4251622,-1.2363913,-13.98,2.76,-25.92
1774594649850,1.6472107,2.7581203,7.920019,0.8063421,-0.3726278,-1.2791518,-14.46,1.86,-25.92
1774594649861,1.3694834,2.825158,7.824251,0.65484756,-0.31887165,-1.3341297,-14.58,0.96,-25.98
1774594649872,0.6703765,2.858677,8.159439,0.3371976,-0.26633725,-1.4147639,-14.82,-0.06,-26.4
1774594649882,0.46926352,2.8874073,8.384495,0.22968534,-0.25289822,-1.4404203,-14.82,-0.29999998,-26.16
1774594649894,0.19153613,2.8538885,8.8777,0.10751228,-0.25167647,-1.4819591,-15.54,-0.96,-26.039999
1774594649905,-0.44532153,2.7581203,9.610326,-0.02565634,-0.26145032,-1.536937,-15.78,-1.14,-26.519999
1774594649916,-0.80924016,2.6527755,9.868899,-0.04520403,-0.2761111,-1.5454891,-15.96,-1.62,-26.46
1774594649926,-1.1013328,2.5378537,9.92636,-0.02687807,-0.3042109,-1.536937,-15.66,-1.14,-26.519999
1774594649936,-1.5227122,2.4420857,9.916783,0.07086037,-0.3811799,-1.4636332,-16.199999,-1.3199999,-26.34
1774594649947,-1.5610195,2.4995465,9.662998,0.15760323,-0.43004912,-1.3988814,-15.9,-0.96,-26.58
1774594649958,-1.4796166,2.60968,9.299079,0.24801129,-0.49846604,-1.3316863,-16.32,-1.38,-26.58
1774594649968,-1.2641385,2.834735,8.485051,0.344528,-0.57787853,-1.2278391,-16.74,-2.3999999,-26.16
1774594649978,-1.1779473,2.9113493,8.082825,0.35430184,-0.59864795,-1.17897,-17.039999,-3.0,-25.8
1774594649990,-1.0965444,2.9879637,7.728483,0.33353242,-0.6059783,-1.1386528,-17.22,-3.36,-25.5
1774594650000,-0.92895025,3.0597897,7.4603324,0.2443461,-0.55955255,-1.0726794,-17.58,-3.72,-25.56
1774594650013,-0.770933,3.122039,7.321469,0.17959438,-0.49968776,-1.0482447,-18.06,-3.6,-25.8
1774594650023,-0.38307226,3.1986535,7.321469,0.07086037,-0.45204028,-1.0482447,-18.359999,-3.78,-26.039999
1774594650033,-0.272939,3.2130187,7.3885064,0.02443461,-0.4251622,-1.0665708,-18.539999,-4.14,-25.5
1774594650044,-0.24899697,3.2034419,7.4124484,-0.010995574,-0.40194935,-1.0812315,-18.3,-4.3199997,-25.38
1774594650055,-0.29209262,3.2130187,7.441179,-0.030543262,-0.3933972,-1.0836749,-17.88,-4.02,-25.439999
1774594650065,-0.39264908,3.2848446,7.311892,-0.0842994,-0.4251622,-1.0629056,-17.94,-4.02,-25.32
1774594650076,-0.48841715,3.2992098,7.2783732,-0.11728613,-0.44104472,-1.0372492,-18.3,-4.56,-25.08
1774594650086,-0.5793968,3.3039982,7.2448545,-0.14660765,-0.44593164,-1.0103711,-18.9,-5.3399997,-24.779999
1774594650097,-0.61291564,3.3614593,7.374141,-0.23579398,-0.4251622,-0.91751957,-19.26,-6.0,-24.6
1774594650107,-0.5793968,3.4093432,7.517793,-0.27000242,-0.41050145,-0.8857546,-19.14,-5.7599998,-24.9
1774594650117,-0.5315128,3.490746,7.7189064,-0.3005457,-0.37384954,-0.8491027,-19.14,-5.58,-24.779999
1774594650128,-0.34476504,3.5482068,8.039729,-0.3213151,-0.28955013,-0.79290307,-19.859999,-6.0,-24.72
1774594650138,-0.24899697,3.53863,8.283937,-0.31398472,-0.25167647,-0.7819075,-20.039999,-5.52,-24.6
1774594650149,-0.2681506,3.5482068,8.480263,-0.2968805,-0.19181168,-0.7696902,-19.8,-4.98,-24.84
1774594650159,-0.5650316,3.5338416,8.619126,-0.23457226,-0.12339478,-0.7293731,-19.08,-4.02,-24.96
1774594650171,-0.7517793,3.5482068,8.623915,-0.18570304,-0.12095132,-0.6951646,-19.26,-4.08,-25.08
1774594650182,-0.8762778,3.5913026,8.552089,-0.14049901,-0.11362094,-0.64996064,-19.32,-4.38,-24.539999
1774594650192,-1.0630256,3.763685,8.145074,-0.111177474,-0.073303826,-0.56077427,-20.039999,-4.74,-25.32
1774594650204,-1.0534488,3.8355112,8.106767,-0.13805555,-0.06719518,-0.5180137,-20.279999,-5.3399997,-24.66
1774594650215,-0.9576807,3.916914,8.221688,-0.17592919,-0.06719518,-0.49235737,-20.22,-5.04,-24.72
1774594650225,-0.79966336,4.0462008,8.576031,-0.22724187,-0.04642576,-0.47525316,-20.039999,-5.46,-23.279999
1774594650236,-0.7661445,4.1802764,8.700529,-0.2406809,-0.04153884,-0.47647488,-19.74,-5.7599998,-24.119999
1774594650247,-0.7757214,4.333505,8.801085,-0.26389378,-0.034208454,-0.47158796,-20.1,-6.06,-24.0
1774594650257,-0.90500826,4.6112323,9.059659,-0.32620203,0.0012217305,-0.44715336,-20.16,-5.64,-24.18
1774594650268,-0.92895025,4.721366,9.289502,-0.36774087,0.014660766,-0.4202753,-19.859999,-4.7999997,-24.24
1774594650278,-0.9528923,4.855441,9.634268,-0.39461896,0.029321533,-0.39461896,-19.74,-4.98,-24.539999
1774594650290,-0.90979666,5.2145715,10.510546,-0.4129449,0.0036651916,-0.30909783,-20.16,-5.8199997,-24.119999
1774594650301,-0.90021986,5.3965306,11.061212,-0.38728857,-0.028099801,-0.2883284,-20.76,-6.42,-24.359999
1774594650313,-1.3120226,5.142745,11.899182,-0.33353242,-0.042760566,-0.28221974,-20.76,-5.7,-24.24
1774594650324,-1.5705963,4.903325,12.08593,-0.31520647,-0.06963864,-0.26389378,-20.22,-4.92,-24.24
1774594650335,-1.7429788,4.7548847,12.23437,-0.30543262,-0.14538592,-0.23090707,-19.8,-4.44,-24.18
1774594650346,-1.6759412,4.261679,12.837709,-0.25167647,-0.33841935,-0.15882497,-20.34,-5.22,-24.24
1774594650357,-1.4939818,3.691859,13.057976,-0.14905111,-0.45081854,-0.10751228,-20.88,-6.12,-24.3
1774594650367,-1.3024458,3.2561142,12.966996,-0.047647487,-0.52412236,-0.065973446,-21.18,-6.72,-24.06
1774594650378,-0.7757214,2.6862943,12.071565,0.17592919,-0.61575216,0.057421334,-20.88,-5.8799996,-23.76
1774594650389,-0.39743748,2.5617957,11.492168,0.24923302,-0.6267477,0.1001819,-20.88,-5.58,-23.279999
1774594650399,0.047884032,2.2457612,10.577583,0.2968805,-0.5729916,0.09896017,-20.76,-5.22,-23.58
1774594650409,-0.019153614,1.7717092,10.117896,0.24678956,-0.50946164,0.06719518,-20.88,-5.04,-23.939999
1774594650421,-0.20590134,1.1779473,9.854534,0.16126843,-0.47525316,0.042760566,-21.6,-5.4,-23.939999
1774594650432,-0.545878,0.272939,10.275913,-0.07696902,-0.47403142,-0.02076942,-21.96,-5.8799996,-23.279999
1774594650442,-0.5793968,0.01436521,10.529699,-0.10873401,-0.45448375,-0.032986723,-22.14,-6.18,-22.619999
1774594650452,-0.5410896,-0.21068975,10.668563,-0.080634214,-0.44104472,-0.040317107,-21.84,-5.8199997,-22.619999
1774594650462,-0.45968673,-0.45010993,10.702082,-0.009773844,-0.41783184,-0.05009095,-22.199999,-5.8799996,-22.74
1774594650473,-0.34476504,-0.93373865,10.19451,0.11484267,-0.40194935,-0.064751714,-23.039999,-5.8199997,-22.74
1774594650483,-0.29209262,-1.0965444,9.916783,0.13316862,-0.4166101,-0.0720821,-23.34,-6.18,-22.619999
1774594650493,-0.22984336,-1.2545617,9.753978,0.09896017,-0.43371433,-0.07452556,-23.519999,-6.3599997,-22.56
1774594650504,-0.24420857,-1.4939818,9.629479,-0.035430185,-0.43127087,-0.08307768,-23.4,-6.2999997,-22.439999
1774594650514,-0.29209262,-1.5227122,9.667787,-0.10873401,-0.39706242,-0.0842994,-22.859999,-5.64,-22.14
1774594650524,-0.36870706,-1.5514427,9.730036,-0.15515977,-0.33841935,-0.07941248,-22.68,-5.46,-22.26
1774594650536,-0.51235914,-1.532289,9.744401,-0.17348573,-0.27122417,-0.07452556,-22.68,-5.64,-22.199999
1774594650546,-0.91458505,-1.3934253,9.543288,-0.1685988,-0.08552113,-0.04886922,-23.16,-5.8799996,-22.439999
1774594650557,-1.1204864,-1.283292,9.404425,-0.15882497,-0.014660766,-0.029321533,-23.039999,-6.18,-22.199999
1774594650569,-1.283292,-1.2354081,9.212888,-0.1563815,0.03176499,-0.010995574,-23.519999,-6.6,-22.439999
1774594650580,-1.4030021,-1.1540052,8.724471,-0.21013765,0.112399206,0.056199603,-23.699999,-7.02,-22.439999
1774594650591,-1.3599066,-1.0965444,8.595184,-0.25411993,0.12461651,0.080634214,-24.18,-7.3799996,-22.56
1774594650601,-1.0390835,-0.80924016,8.566454,-0.37384954,0.13072516,0.13194689,-23.58,-6.54,-22.5
1774594650611,-0.8619126,-0.6607997,8.63828,-0.42271876,0.12339478,0.14294247,-23.88,-6.6,-22.38
1774594650622,-0.7469909,-0.5602432,8.700529,-0.44715336,0.11728613,0.15393804,-23.76,-6.18,-22.199999
1774594650632,-0.47884035,-0.4405331,8.844181,-0.4801401,0.058643065,0.18448131,-23.82,-6.0,-22.26
1774594650643,-0.36391866,-0.36870706,8.920795,-0.48380527,0.029321533,0.19792034,-23.58,-5.58,-22.5
1774594650654,-0.23942018,-0.30166942,9.030929,-0.48991394,0.013439035,0.20769419,-23.76,-5.4,-22.8
1774594650665,-0.023942016,-0.23942018,9.313444,-0.49235737,0.010995574,0.23335053,-24.24,-5.7599998,-22.92
1774594650676,0.1340753,-0.15801731,9.442732,-0.48747048,0.0012217305,0.23823744,-24.24,-5.52,-23.16
1774594650688,0.20590134,-0.076614454,9.399636,-0.46914452,-0.002443461,0.2284636,-24.359999,-5.94,-22.56
1774594650699,0.5506664,0.17238252,9.849746,-0.43127087,-0.089186326,0.18325958,-24.119999,-5.58,-21.779999
1774594650711,0.59855044,0.18195933,10.012551,-0.408058,-0.047647487,0.15271631,-23.88,-5.46,-21.359999
1774594650721,0.6895301,0.22984336,10.031705,-0.32620203,0.015882496,0.07941248,-23.22,-3.9599998,-22.26
1774594650731,0.7134721,0.31124622,10.060435,-0.3005457,0.039095376,0.04886922,-23.039999,-3.54,-22.68
1774594650742,0.7086837,0.33039984,10.012551,-0.26511553,0.065973446,0.004886922,-23.279999,-3.6,-22.32
1774594650753,0.5315128,0.272939,9.935937,-0.19547687,0.09162979,-0.0720821,-24.18,-4.68,-22.08
1774594650764,0.4405331,0.25378537,9.89763,-0.16982053,0.09407325,-0.095294975,-24.66,-5.1,-21.66
1774594650774,0.40222588,0.19632454,9.864111,-0.14172074,0.10140363,-0.12095132,-24.359999,-4.62,-22.02
1774594650785,0.37349546,0.033518825,9.801862,-0.095294975,0.09040806,-0.16615535,-23.519999,-3.8999999,-22.56
1774594650796,0.34955344,-0.095768064,9.821015,-0.073303826,0.06719518,-0.18936823,-23.1,-3.1799998,-22.5
1774594650807,0.25857377,-0.16280572,9.92636,-0.057421334,0.047647487,-0.20525073,-23.82,-4.2,-22.199999
1774594650818,0.11492168,-0.23463176,9.921572,-0.02687807,-0.030543262,-0.21502456,-24.66,-4.68,-21.6
1774594650828,0.1388637,-0.22984336,10.04607,-0.002443461,-0.089186326,-0.21624629,-24.6,-4.8599997,-21.72
1774594650838,0.22505496,-0.18674773,10.208876,0.017104227,-0.12095132,-0.2125811,-23.76,-3.9599998,-21.96
1774594650848,0.33997664,-0.0047884034,10.457873,0.0720821,-0.1001819,-0.23090707,-23.519999,-3.6,-22.56
1774594650860,0.320823,0.04309563,10.366894,0.10262536,-0.073303826,-0.25167647,-23.939999,-3.6599998,-22.619999
1774594650871,0.24899697,0.090979666,10.199299,0.13072516,-0.059864793,-0.27855456,-23.939999,-3.6,-22.8
1774594650882,0.1340753,0.22505496,9.993398,0.15760323,-0.05375614,-0.31642818,-23.88,-3.6599998,-22.26
1774594650892,0.12928689,0.29688102,10.041282,0.16249016,-0.03176499,-0.33475417,-23.939999,-4.02,-22.08
1774594650903,0.17717093,0.46447513,10.070012,0.20525073,-0.02687807,-0.36285394,-24.359999,-4.3199997,-22.56
1774594650914,0.1388637,0.545878,10.079589,0.25167647,-0.032986723,-0.37140608,-24.539999,-4.8599997,-22.32
1774594650925,0.08619126,0.5746084,9.892841,0.3115413,-0.06963864,-0.37140608,-24.6,-4.98,-22.26
1774594650935,0.023942016,0.5363012,9.600749,0.3555236,-0.1160644,-0.36651915,-24.48,-4.98,-22.14
1774594650945,0.22984336,0.81402856,9.32781,0.38240165,-0.20769419,-0.36285394,-24.66,-5.8199997,-22.32
1774594650956,0.36870706,0.90979666,9.433155,0.36041048,-0.19181168,-0.3811799,-24.72,-6.12,-22.68
1774594650967,0.4165911,0.90021986,9.32781,0.3481932,-0.16371189,-0.39950588,-24.66,-6.06,-22.619999
1774594650977,0.5506664,1.1923125,9.351752,0.30298916,-0.09162979,-0.46670106,-24.6,-6.06,-22.68
1774594650993,0.2777274,1.1779473,8.949526,0.23579398,0.032986723,-0.53023106,-24.48,-6.48,-22.56
1774594651003,0.06703765,1.1109096,8.853758,0.18325958,0.07086037,-0.5534439,-24.3,-6.6,-22.74
1774594651013,-0.1388637,1.0582372,8.767567,0.12339478,0.09407325,-0.55955255,-24.24,-6.7799997,-22.199999
1774594651023,-0.33039984,0.9528923,8.925584,-0.0036651916,0.061086524,-0.5448918,-24.18,-7.3199997,-21.9
1774594651034,-0.46926352,0.89064306,9.193734,-0.061086524,0.028099801,-0.535118,-24.539999,-7.98,-22.02
1774594651044,-0.59376204,0.8283938,9.466674,-0.09162979,0.004886922,-0.5204572,-24.18,-7.8599997,-22.439999
1774594651054,-0.6847417,0.81881696,9.830592,-0.11728613,-0.004886922,-0.49846604,-24.06,-7.74,-22.8
1774594651064,-0.770933,0.79487497,10.376471,-0.080634214,0.05009095,-0.43371433,-23.34,-7.08,-22.32
1774594651074,-0.81402856,0.7661445,10.457873,-0.037873644,0.09040806,-0.39706242,-23.939999,-7.3199997,-22.199999
1774594651084,-0.8571242,0.80445176,10.290278,0.030543262,0.13072516,-0.3494149,-24.3,-7.3799996,-21.96
1774594651094,-0.8523358,0.92416185,10.0029745,0.089186326,0.15271631,-0.29932398,-23.939999,-7.3199997,-21.84
1774594651117,-0.7422025,1.0965444,9.44752,0.15515977,0.22357668,-0.1881465,-23.519999,-7.44,-23.1
1774594651127,-0.78529817,1.3024458,8.892065,0.15027285,0.27977628,-0.1001819,-23.46,-7.14,-22.5
1774594651136,-0.80445176,1.3599066,8.686164,0.12583824,0.2968805,-0.058643065,-23.279999,-7.14,-22.32
1774594651147,-0.8331822,1.3599066,8.552089,0.08674286,0.31887165,-0.018325957,-23.76,-7.44,-22.14
1774594651157,-0.8571242,1.3790601,8.475474,0.04520403,0.3371976,0.02076942,-23.939999,-7.98,-22.14
1774594651167,-0.89064306,1.316811,8.628703,-0.05009095,0.3848451,0.07819075,-23.939999,-8.46,-21.96
1774594651177,-0.91458505,1.2449849,8.825027,-0.07941248,0.41905355,0.105068825,-23.76,-8.5199995,-22.26
1774594651187,-0.8810662,1.1779473,8.90643,-0.09773844,0.453262,0.12705997,-24.06,-8.88,-22.859999
1774594651197,-0.80445176,1.1875241,8.930372,-0.12095132,0.51068336,0.15393804,-23.939999,-8.76,-23.1
1774594651207,-0.6655881,1.2306197,8.944737,-0.1441642,0.5693264,0.15515977,-23.58,-8.639999,-23.699999
1774594651217,-0.3878607,1.3503298,8.916007,-0.18203785,0.6731735,0.112399206,-22.92,-8.099999,-23.76
1774594651227,-0.39743748,1.3790601,8.887277,-0.1966986,0.6939429,0.06841691,-23.039999,-8.16,-23.699999
1774594651238,-0.47405192,1.364695,8.844181,-0.2125811,0.68783426,0.018325957,-22.98,-7.74,-23.699999
1774594651248,-0.78529817,1.2497733,8.930372,-0.23945917,0.6072,-0.042760566,-22.38,-7.62,-24.0
1774594651259,-0.93852705,1.1971009,9.035717,-0.2443461,0.5314528,-0.05375614,-21.84,-7.2,-24.42
1774594651269,-1.1348516,1.1444284,9.188946,-0.24312437,0.453262,-0.043982297,-21.66,-7.3199997,-24.6
1774594651279,-1.2258313,1.1492168,9.595961,-0.21380283,0.34697145,0.017104227,-21.359999,-6.72,-24.84
1774594651290,-1.0965444,1.2354081,9.80665,-0.17959438,0.30298916,0.059864793,-21.0,-6.6,-24.66
1774594651300,-0.9624691,1.3503298,9.9550905,-0.13927728,0.26389378,0.09040806,-20.76,-6.6,-24.66
1774594651310,-0.7230489,1.4891934,10.0508585,-0.07452556,0.19914207,0.12339478,-20.46,-6.48,-25.019999
1774594651320,-0.24899697,1.7190368,10.0508585,0.058643065,0.09162979,0.15760323,-20.46,-7.2,-24.9
1774594651330,-0.07182605,1.7764976,9.821015,0.09773844,0.040317107,0.1563815,-19.859999,-6.48,-24.779999
1774594651341,0.038307227,1.7764976,9.653421,0.13194689,-0.02076942,0.15027285,-20.1,-6.7799997,-24.359999
1774594651351,0.12449849,1.8291701,9.509769,0.13439035,-0.065973446,0.14049901,-20.1,-6.6,-24.539999
1774594651361,0.23942018,1.9393034,9.23683,0.09162979,-0.11484267,0.12705997,-20.34,-6.12,-24.6
1774594651371,0.34476504,2.0254946,9.174581,0.042760566,-0.13805555,0.10873401,-20.52,-6.0,-24.96
1774594651381,0.40222588,2.1212628,9.198523,-0.013439035,-0.1441642,0.07941248,-20.58,-6.24,-24.539999
1774594651391,0.48362875,2.3894134,9.260772,-0.118507855,-0.13316862,0.012217305,-21.72,-7.44,-24.66
1774594651401,0.50757074,2.480393,9.313444,-0.18325958,-0.13072516,-0.037873644,-21.359999,-7.3199997,-24.6
1774594651411,0.47405192,2.5905263,9.409213,-0.23457226,-0.13072516,-0.0842994,-21.96,-7.68,-24.72
1774594651421,0.25857377,2.6288335,9.514558,-0.29443705,-0.13927728,-0.15027285,-21.9,-7.44,-24.06
1774594651432,-0.35913026,2.566584,9.921572,-0.36651915,-0.15271631,-0.25411993,-21.6,-6.6,-24.06
1774594651443,-0.6464345,2.4756045,10.127473,-0.36774087,-0.15393804,-0.28221974,-21.24,-6.0,-23.64
1774594651453,-0.9864111,2.384625,10.342952,-0.34697145,-0.15760323,-0.30543262,-22.08,-7.02,-24.72
1774594651463,-1.5131354,2.2266076,10.553641,-0.2406809,-0.17348573,-0.31642818,-24.84,-8.4,-25.32
1774594651473,-1.7669208,2.1547816,10.572795,-0.15027285,-0.17959438,-0.30543262,-25.619999,-8.46,-26.279999
1774594651484,-1.9393034,2.1021092,10.443508,-0.05375614,-0.19425514,-0.2773328,-25.019999,-7.5,-25.26
1774594651495,-2.111686,2.0398598,10.16578,0.032986723,-0.22113322,-0.23335053,-24.119999,-6.8999996,-24.48
1774594651505,-2.2888567,1.9871874,9.696517,0.14172074,-0.33108896,-0.12095132,-22.8,-6.96,-23.1
1774594651515,-2.2697031,1.9393034,9.519346,0.1881465,-0.38728857,-0.042760566,-23.16,-7.44,-23.279999
1774594651526,-2.1164744,1.8818425,9.260772,0.2321288,-0.4654793,0.036651913,-22.92,-7.02,-23.46
1774594651537,-1.5227122,1.8722657,8.872911,0.28221974,-0.5864306,0.1600467,-22.5,-6.42,-23.699999
1774594651548,-1.0486604,1.9680338,8.63828,0.28221974,-0.6169739,0.20158553,-22.439999,-6.42,-23.46
1774594651559,-0.6512229,2.0159178,8.532935,0.2687807,-0.6133087,0.21868975,-22.619999,-6.7799997,-23.279999
1774594651568,-0.06703765,2.15957,8.384495,0.19914207,-0.5155703,0.22235495,-23.22,-7.5,-23.22
1774594651579,0.15322891,2.2266076,8.360553,0.15393804,-0.43982297,0.2125811,-23.46,-7.62,-22.68
1774594651590,0.2825158,2.2505496,8.350976,0.118507855,-0.37384954,0.204029,-23.82,-7.8599997,-22.02
1774594651601,0.48362875,2.255338,8.465898,0.035430185,-0.17837265,0.19303341,-24.779999,-8.4,-21.6
1774594651612,0.50278234,2.2361844,8.51857,0.014660766,-0.10751228,0.18570304,-25.019999,-8.4,-21.48
1774594651622,0.545878,2.336741,8.42759,-0.012217305,-0.019547688,0.17470746,-24.84,-7.9199996,-21.96
1774594651633,0.62249243,2.3654714,8.408437,-0.081855945,0.07086037,0.15027285,-24.18,-6.96,-21.66
1774594651643,0.5793968,2.360683,8.48984,-0.105068825,0.096516706,0.14172074,-24.48,-7.2,-22.5
1774594651654,0.50278234,2.384625,8.532935,-0.13439035,0.12461651,0.12705997,-24.42,-7.08,-22.439999
1774594651665,0.40701428,2.432509,8.580819,-0.1600467,0.14049901,0.118507855,-24.359999,-7.44,-22.439999
1774594651675,0.15322891,2.5761611,8.690952,-0.19792034,0.12705997,0.111177474,-24.48,-7.7999997,-22.14
1774594651686,0.05267244,2.5953147,8.743625,-0.21135938,0.103847094,0.11362094,-24.72,-8.04,-21.9
1774594651697,-0.07182605,2.705448,8.968679,-0.21502456,0.057421334,0.12217305,-24.06,-7.44,-22.199999
1774594651708,-0.05746084,2.7629087,9.121908,-0.204029,0.030543262,0.12950343,-23.939999,-7.2,-22.68
1774594651719,-0.02873042,2.834735,9.23683,-0.18448131,0.002443461,0.13439035,-23.46,-6.8999996,-22.859999
1774594651729,-0.033518825,2.8395233,9.629479,-0.12339478,-0.036651913,0.14049901,-23.76,-6.8999996,-22.68
1774594651739,-0.14844051,2.8203697,9.725247,-0.07696902,-0.035430185,0.1563815,-23.519999,-6.3599997,-22.619999
1774594651750,-0.21547815,2.834735,9.749189,-0.034208454,-0.03176499,0.17959438,-23.88,-6.54,-22.199999
1774594651761,-0.16759412,3.0262709,9.65821,0.02687807,-0.04153884,0.2125811,-24.0,-6.2999997,-21.66
1774594651772,-0.1340753,3.0693667,9.581595,0.05131268,-0.05497787,0.2284636,-24.24,-6.3599997,-21.24
1774594651783,-0.090979666,3.0933087,9.543288,0.062308256,-0.06719518,0.23823744,-24.3,-6.72,-21.359999
1774594651793,0.05746084,3.098097,9.519346,0.065973446,-0.09407325,0.24556783,-24.3,-7.08,-21.66
1774594651804,0.12449849,3.1124623,9.56723,0.062308256,-0.09162979,0.24312437,-24.72,-7.68,-21.779999
1774594651815,0.12928689,3.1172507,9.65821,0.06352998,-0.0842994,0.24190263,-24.3,-7.08,-21.84
1774594651825,0.11492168,3.1124623,9.849746,0.06719518,-0.034208454,0.26267207,-24.66,-7.7999997,-21.0
1774594651835,0.10534488,3.1411927,9.940725,0.080634214,-0.036651913,0.2846632,-24.24,-6.96,-21.06
1774594651847,0.1388637,3.2273839,10.0508585,0.10262536,-0.05131268,0.3005457,-24.48,-6.96,-21.06
1774594651857,0.2825158,3.5242648,10.328587,0.18692477,-0.0842994,0.32986724,-24.24,-6.6,-21.42
1774594651869,0.30166942,3.6391866,10.390836,0.22113322,-0.08674286,0.3359759,-24.24,-6.54,-21.48
1774594651880,0.38307226,3.8498764,10.414778,0.267559,-0.080634214,0.34330627,-24.119999,-6.18,-21.9
1774594651892,0.5793968,4.0653543,10.266336,0.2919936,-0.056199603,0.31520647,-24.96,-6.8399997,-21.48
1774594651902,0.47405192,3.7110126,10.314221,0.2565634,-0.02443461,0.29077184,-25.38,-7.5,-21.18
1774594651912,0.15801731,2.6240451,10.625467,0.18325958,0.018325957,0.26267207,-24.539999,-7.2,-20.64
1774594651923,0.1388637,2.2744915,10.941502,0.019547688,-0.032986723,0.23090707,-24.18,-7.08,-21.359999
1774594651934,0.24899697,1.8626889,11.482592,-0.05375614,-0.09773844,0.21135938,-23.88,-6.8399997,-21.84
1774594651944,0.521936,1.1875241,12.334928,-0.012217305,-0.19547687,0.16493362,-24.06,-6.7799997,-22.08
1774594651954,0.5602432,0.9959879,12.459426,0.06719518,-0.2125811,0.15882497,-24.119999,-6.3599997,-22.08
1774594651964,0.61291564,1.0055647,12.291832,0.20158553,-0.21013765,0.17470746,-24.18,-6.0,-21.9
1774594651975,0.6512229,1.1300632,11.927913,0.33353242,-0.18936823,0.204029,-24.359999,-6.18,-22.199999
1774594651986,0.8283938,1.4700398,10.730812,0.45204028,-0.111177474,0.22602014,-24.72,-6.8399997,-22.5
1774594651996,0.6560113,1.292869,10.127473,0.3811799,-0.012217305,0.19303341,-24.66,-6.7799997,-22.5
1774594652008,0.110133275,0.7134721,9.782708,0.1966986,0.10140363,0.1563815,-24.779999,-7.2,-22.02
1774594652018,-0.9528923,-0.37349546,10.108319,-0.18448131,0.19425514,0.13805555,-24.48,-7.2,-22.02
1774594652029,-1.1540052,-0.7374141,10.620679,-0.344528,0.15760323,0.1563815,-24.48,-7.5,-22.02
1774594652039,-1.1252748,-1.0726024,11.291056,-0.4007276,0.11362094,0.17470746,-24.539999,-7.3199997,-22.26
1774594652049,-0.8714894,-1.70946,12.330139,-0.32986724,0.032986723,0.19547687,-25.14,-7.7999997,-21.96
1774594652059,-0.79966336,-1.9201498,12.397177,-0.23579398,0.0012217305,0.18325958,-25.26,-8.22,-21.66
1774594652070,-0.80445176,-2.2122424,12.339716,-0.16126843,-0.018325957,0.17715092,-25.439999,-8.22,-21.9
1774594652081,-0.7565677,-2.4133554,12.143391,-0.064751714,-0.043982297,0.18570304,-25.32,-7.7999997,-22.439999
1774594652092,-0.6847417,-2.456451,11.592725,0.065973446,-0.087964594,0.19181168,-24.6,-6.48,-22.92
1774594652103,-0.6655881,-2.327164,11.238382,0.10873401,-0.080634214,0.20158553,-24.6,-6.66,-23.1
1774594652114,-0.6560113,-1.9057846,10.429143,0.23335053,0.007330383,0.23579398,-24.84,-6.66,-22.859999
1774594652125,-0.6560113,-1.6807296,9.964667,0.27977628,0.058643065,0.24923302,-24.779999,-6.8999996,-22.8
1774594652136,-0.6512229,-1.436521,9.385271,0.32742378,0.12950343,0.27000242,-23.82,-6.06,-22.32
1774594652146,-0.7374141,-1.0630256,8.135497,0.36774087,0.2003638,0.3115413,-24.18,-7.08,-21.96
1774594652159,-0.6991069,-0.8858546,7.61835,0.3481932,0.19914207,0.32620203,-24.539999,-7.14,-22.08
1774594652169,-0.44532153,-0.60333884,7.086837,0.20525073,0.14782938,0.35063666,-24.9,-7.56,-22.5
1774594652180,-0.272939,-0.49320555,7.0006456,0.13316862,0.10629055,0.35308012,-25.08,-7.8599997,-22.56
1774594652191,-0.062249243,-0.4165911,7.067683,0.035430185,0.043982297,0.35063666,-24.66,-7.2,-22.5
1774594652201,0.31603462,-0.33997664,7.417237,-0.14172074,-0.061086524,0.31520647,-25.26,-7.8599997,-22.56
1774594652210,0.4309563,-0.33518824,7.680599,-0.19547687,-0.081855945,0.29443705,-25.38,-7.74,-22.859999
1774594652221,0.51714754,-0.34476504,7.97748,-0.25534168,-0.0842994,0.27122417,-25.859999,-8.22,-22.98
1774594652232,0.60812724,-0.34955344,8.312668,-0.3005457,-0.061086524,0.24923302,-25.619999,-7.8599997,-23.64
1774594652244,0.58418524,-0.38307226,8.815451,-0.32742378,0.0061086523,0.20891592,-25.8,-7.62,-23.58
1774594652255,0.47405192,-0.41180268,9.006987,-0.32986724,0.035430185,0.19058995,-25.8,-7.62,-23.64
1774594652265,0.24899697,-0.39743748,9.246407,-0.312763,0.07086037,0.17104226,-26.039999,-7.68,-22.92
1774594652276,0.14844051,-0.40222588,9.375694,-0.28344148,0.057421334,0.15393804,-26.16,-7.2,-23.34
1774594652286,0.019153614,-0.49320555,9.519346,-0.23701571,0.036651913,0.1441642,-26.34,-7.02,-23.58
1774594652296,-0.10055647,-0.5315128,9.562442,-0.19547687,0.029321533,0.14172074,-26.82,-7.3199997,-23.88
1774594652306,-0.24420857,-0.61291564,9.299079,-0.1282817,-0.040317107,0.14294247,-26.46,-7.14,-24.06
1774594652318,-0.22026655,-0.61291564,9.184157,-0.12583824,-0.08552113,0.14660765,-26.4,-6.8999996,-23.82
1774594652329,-0.08619126,-0.56982,9.131485,-0.14172074,-0.10629055,0.14782938,-26.46,-6.96,-23.64
1774594652340,0.2825158,-0.3878607,9.275137,-0.21013765,-0.118507855,0.11362094,-26.939999,-6.42,-23.039999
1774594652351,0.38307226,-0.33518824,9.428367,-0.22968534,-0.10262536,0.09040806,-26.46,-6.42,-23.1
1774594652362,0.4165911,-0.30645782,9.639056,-0.26145032,-0.07086037,0.034208454,-26.279999,-6.66,-22.92
1774594652373,0.45968673,-0.2633622,9.734824,-0.27488935,-0.06719518,0.010995574,-25.619999,-5.8199997,-23.519999
1774594652383,0.5506664,-0.18674773,9.9550905,-0.2846632,-0.05375614,-0.010995574,-26.16,-5.7599998,-23.699999
1774594652393,0.51714754,-0.19632454,10.04607,-0.2687807,-0.047647487,-0.04886922,-26.4,-5.64,-23.64
1774594652405,0.49799395,-0.21068975,9.490616,-0.20158553,-0.16982053,-0.09407325,-26.58,-6.06,-23.279999
1774594652416,0.79966336,-0.02873042,9.830592,-0.2602286,-0.04520403,-0.17837265,-26.699999,-6.8399997,-23.1
1774594652426,0.7038953,-0.009576807,9.902418,-0.2602286,-0.0061086523,-0.21991149,-26.699999,-6.7799997,-22.859999
1774594652437,0.6607997,0.019153614,9.888053,-0.25045475,0.02321288,-0.24556783,-27.119999,-6.8399997,-22.74
1774594652447,0.6799533,0.12449849,9.921572,-0.23090707,0.05131268,-0.27122417,-27.42,-6.7799997,-22.92
1774594652456,0.7134721,0.23463176,9.931149,-0.18203785,0.07574729,-0.32620203,-26.939999,-5.64,-22.98
1774594652468,0.6943185,0.23942018,9.888053,-0.1441642,0.08552113,-0.35918877,-26.88,-5.52,-23.16
1774594652479,0.5746084,0.30645782,9.753978,-0.043982297,0.062308256,-0.4251622,-26.699999,-5.22,-23.34
1774594652489,0.48841715,0.30166942,9.648633,-0.004886922,0.061086524,-0.45081854,-26.58,-5.22,-23.46
1774594652499,0.40701428,0.33039984,9.423578,0.04153884,0.058643065,-0.4813618,-26.76,-5.8799996,-22.92
1774594652510,0.25857377,0.32561144,9.174581,0.056199603,0.059864793,-0.5131268,-26.4,-5.46,-22.859999
1774594652520,-0.047884032,0.23942018,8.959103,0.032986723,0.064751714,-0.5375614,-26.4,-6.18,-22.74
1774594652530,-0.10534488,0.29209262,8.896853,0.004886922,0.052534413,-0.54000485,-26.22,-6.18,-23.519999
1774594652540,-0.1340753,0.320823,8.892065,-0.04153884,0.019547688,-0.54000485,-26.4,-6.48,-23.699999
1774594652551,-0.17238252,0.21068975,9.141062,-0.13683382,-0.037873644,-0.5448918,-26.279999,-6.66,-23.76
1774594652562,-0.16759412,0.22984336,9.380483,-0.19303341,-0.05009095,-0.5412266,-26.58,-7.14,-23.34
1774594652572,-0.15801731,0.25378537,9.610326,-0.23335053,-0.040317107,-0.54000485,-26.64,-7.56,-23.22
1774594652582,-0.18195933,0.22026655,9.873688,-0.28710666,-0.008552114,-0.5375614,-26.519999,-7.3199997,-23.4
1774594652593,-0.37349546,0.16280572,10.070012,-0.38973203,0.05009095,-0.52778757,-26.22,-6.6,-23.46
1774594652613,-0.30645782,0.07182605,10.630256,-0.49235737,0.11728613,-0.49480084,-26.58,-7.14,-23.58
1774594652625,-0.24420857,0.08619126,11.401189,-0.44226643,0.18325958,-0.4569272,-26.4,-7.08,-22.859999
1774594652635,-0.31603462,0.16759412,11.506534,-0.33353242,0.21868975,-0.4373795,-26.279999,-6.7799997,-22.859999
1774594652645,-0.44532153,0.2825158,11.429919,-0.20158553,0.23945917,-0.41416663,-25.98,-6.6,-22.74
1774594652655,-0.79966336,0.5602432,10.936713,0.018325957,0.25289822,-0.36651915,-25.92,-6.72,-23.46
1774594652665,-1.0247183,0.60812724,10.620679,0.1282817,0.2565634,-0.3323107,-25.619999,-6.7799997,-23.22
1774594652676,-1.1923125,0.61770403,10.199299,0.21135938,0.25778514,-0.2932153,-25.98,-7.3199997,-23.16
1774594652687,-1.3503298,0.62728083,9.868899,0.2565634,0.25411993,-0.25900686,-25.98,-7.44,-23.279999
1774594652697,-1.460463,0.6655881,9.504981,0.29810223,0.23457226,-0.20647246,-26.16,-7.68,-23.82
1774594652707,-1.4796166,0.6991069,9.059659,0.32375857,0.18325958,-0.09407325,-25.619999,-7.44,-24.06
1774594652717,-1.4173675,0.6943185,8.872911,0.31764993,0.17470746,-0.05497787,-25.619999,-7.56,-24.24
1774594652728,-1.1013328,0.7086837,8.6334915,0.25534168,0.11728613,0.028099801,-25.08,-6.7799997,-24.359999
1774594652738,-0.91937345,0.6703765,8.66701,0.22357668,0.09773844,0.05131268,-25.5,-7.44,-24.48
1774594652749,-0.6655881,0.63206923,8.743625,0.18448131,0.07086037,0.07574729,-25.439999,-7.3199997,-24.6
1774594652759,-0.21068975,0.5650316,9.035717,0.118507855,0.037873644,0.105068825,-25.859999,-8.04,-24.3
1774594652769,-0.033518825,0.51235914,9.150639,0.09773844,0.036651913,0.10995574,-25.32,-7.3199997,-24.66
1774594652779,0.14844051,0.48841715,9.270349,0.07452556,0.040317107,0.11484267,-25.38,-7.3199997,-24.66
1774594652789,0.320823,0.46447513,9.390059,0.057421334,0.036651913,0.11484267,-25.32,-7.74,-24.96
1774594652801,0.7038953,0.4405331,9.610326,0.04886922,0.015882496,0.10751228,-25.92,-9.12,-24.3
1774594652811,0.8810662,0.4261679,9.677363,0.05497787,-0.007330383,0.09285152,-25.68,-9.36,-24.359999
1774594652821,1.0726024,0.45010993,9.753978,0.07696902,-0.04153884,0.07452556,-25.859999,-9.179999,-24.119999
1774594652832,1.3551182,0.59855044,9.768343,0.12705997,-0.07819075,0.03176499,-25.199999,-8.4,-24.359999
1774594652843,1.4413095,0.78050977,9.710882,0.14905111,-0.08674286,-0.0036651916,-25.439999,-8.28,-23.82
1774594652853,1.5131354,1.0151415,9.610326,0.16126843,-0.09285152,-0.035430185,-25.199999,-8.16,-23.64
1774594652864,1.4987702,1.2306197,9.481039,0.16493362,-0.09040806,-0.07819075,-24.96,-8.16,-23.039999
1774594652874,1.2976574,1.5514427,9.203311,0.12461651,-0.032986723,-0.17348573,-24.96,-7.7999997,-23.88
1774594652885,1.1492168,1.6759412,9.112331,0.09162979,-0.010995574,-0.204029,-25.199999,-7.74,-23.699999
1774594652896,0.9816227,1.8148049,9.050082,0.037873644,0.02321288,-0.24923302,-24.96,-7.44,-24.119999
1774594652906,0.58897364,1.9919758,9.160215,-0.0720821,0.10873401,-0.3115413,-24.96,-7.02,-23.4
1774594652916,0.32561144,2.0494366,9.279925,-0.12583824,0.13805555,-0.33353242,-24.66,-6.8999996,-23.519999
1774594652927,0.12449849,2.0973208,9.385271,-0.16615535,0.1685988,-0.3494149,-24.72,-6.7799997,-23.1
1774594652937,-0.47405192,2.1164744,9.605537,-0.20647246,0.18325958,-0.3200934,-24.539999,-7.56,-23.1
1774594652949,-0.58897364,2.0015526,9.840169,-0.21380283,0.16249016,-0.30665436,-24.84,-7.68,-23.279999
1774594652959,-0.7422025,1.8818425,10.031705,-0.19181168,0.14660765,-0.30665436,-25.08,-7.74,-23.34
1774594652970,-1.13964,1.7142484,10.290278,-0.081855945,0.1160644,-0.27366763,-25.199999,-7.56,-23.88
1774594652980,-1.2545617,1.6711528,10.208876,-0.008552114,0.09407325,-0.24678956,-24.539999,-7.08,-23.76
1774594652990,-1.3120226,1.6424223,10.012551,0.057421334,0.06963864,-0.21991149,-24.18,-7.2599998,-24.06
1774594653001,-1.3263878,1.5370775,9.639056,0.12950343,0.007330383,-0.1441642,-23.699999,-7.3799996,-24.359999
1774594653011,-1.1923125,1.5514427,9.533711,0.15760323,-0.037873644,-0.089186326,-23.82,-7.74,-24.42
1774594653021,-0.91937345,1.6232687,9.433155,0.17592919,-0.08307768,-0.037873644,-24.0,-7.74,-24.42
1774594653033,-0.48362875,1.6950948,9.323022,0.20647246,-0.13316862,0.012217305,-24.42,-7.8599997,-24.24
1774594653043,-0.2825158,1.733402,9.241618,0.2284636,-0.14294247,0.028099801,-25.08,-8.7,-24.18
1774594653054,-0.15801731,1.7812861,9.112331,0.24190263,-0.13561209,0.032986723,-25.14,-8.82,-24.3
1774594653065,0.076614454,1.8579005,8.810662,0.26145032,-0.09285152,0.039095376,-24.6,-8.7,-23.64
1774594653076,0.17238252,1.9297266,8.652645,0.26267207,-0.057421334,0.03176499,-24.779999,-8.5199995,-23.64
1774594653087,0.25857377,2.006341,8.523358,0.26145032,-0.030543262,0.02076942,-24.66,-8.76,-23.22
1774594653098,0.320823,2.1068976,8.240842,0.2284636,0.040317107,-0.02687807,-24.66,-9.12,-23.519999
1774594653108,0.2777274,2.1547816,8.078036,0.20525073,0.059864793,-0.04642576,-24.18,-8.82,-23.82
1774594653118,0.24420857,2.2122424,7.9104424,0.16126843,0.07819075,-0.0720821,-24.06,-8.76,-24.119999
1774594653129,0.07182605,2.2840683,7.867347,0.034208454,0.09285152,-0.1282817,-24.359999,-9.24,-24.66
1774594653140,-0.062249243,2.2840683,7.9487495,-0.015882496,0.09773844,-0.13805555,-24.48,-9.54,-24.3
1774594653151,-0.15322891,2.2984335,8.054094,-0.073303826,0.1001819,-0.14172074,-25.019999,-9.719999,-24.66
1774594653161,-0.35913026,2.3942018,8.408437,-0.13927728,0.08552113,-0.12461651,-25.08,-9.78,-24.42
1774594653173,-0.4261679,2.408567,8.566454,-0.15271631,0.073303826,-0.105068825,-24.779999,-9.599999,-24.48
1774594653183,-0.47884035,2.432509,8.734048,-0.15515977,0.059864793,-0.09162979,-24.119999,-9.599999,-24.42
1774594653193,-0.58897364,2.5570073,9.030929,-0.14660765,0.04153884,-0.062308256,-24.24,-9.84,-24.539999
1774594653204,-0.6655881,2.657564,9.107543,-0.14660765,0.04642576,-0.04520403,-24.06,-9.719999,-24.66
1774594653215,-0.82360536,2.719813,9.193734,-0.15271631,0.061086524,-0.02687807,-24.24,-9.48,-24.539999
1774594653225,-1.1348516,2.72939,9.414001,-0.18081611,0.087964594,0.012217305,-23.76,-8.76,-23.82
1774594653236,-1.2545617,2.7246015,9.557653,-0.19181168,0.09773844,0.039095376,-23.82,-8.88,-23.64
1774594653247,-1.4077905,2.719813,9.768343,-0.19425514,0.103847094,0.07696902,-23.46,-8.639999,-23.76
1774594653257,-1.5514427,2.7102363,10.070012,-0.17959438,0.08674286,0.14782938,-22.8,-7.74,-24.06
1774594653268,-1.5562311,2.7581203,10.213664,-0.15393804,0.061086524,0.18936823,-22.68,-7.5,-24.48
1774594653279,-1.5179238,2.815581,10.333375,-0.1282817,0.034208454,0.21868975,-22.439999,-7.56,-24.48
1774594653290,-1.4748282,2.8634653,10.644621,-0.018325957,-0.02565634,0.30298916,-22.02,-7.3799996,-24.48
1774594653301,-1.436521,2.8874073,10.726024,0.04520403,-0.039095376,0.35063666,-22.199999,-7.74,-24.0
1774594653311,-1.412579,2.8443117,10.759542,0.09407325,-0.04520403,0.39095375,-22.68,-7.8599997,-23.82
1774594653321,-1.292869,2.8107927,10.7356,0.14905111,-0.04642576,0.45204028,-23.279999,-8.34,-23.939999
1774594653331,-0.7661445,2.8443117,10.5440645,0.20769419,-0.06719518,0.52290064,-23.279999,-8.16,-24.48
1774594653343,-0.45010993,2.801216,10.405201,0.204029,-0.064751714,0.52778757,-23.039999,-8.16,-24.3
1774594653353,-0.2873042,2.72939,10.323798,0.15882497,-0.05131268,0.516792,-22.92,-8.099999,-24.06
1774594653364,-0.08140286,2.480393,10.477027,0.014660766,-0.061086524,0.50946164,-23.64,-8.639999,-24.119999
1774594653375,0.05746084,2.2505496,10.82658,-0.07086037,-0.103847094,0.5131268,-23.64,-8.58,-24.42
1774594653386,0.49320555,1.8866309,11.659762,-0.1563815,-0.19547687,0.5155703,-23.16,-7.8599997,-24.96
1774594653397,0.770933,1.6903064,12.109872,-0.15393804,-0.22724187,0.4972443,-22.92,-7.74,-25.019999
1774594653408,0.9816227,1.4987702,12.41633,-0.10751228,-0.22357668,0.4654793,-23.039999,-8.16,-24.72
1774594653419,1.2162545,1.2258313,12.53604,0.040317107,-0.15882497,0.37873647,-24.119999,-8.639999,-25.14
1774594653430,1.2593501,1.1731589,12.215217,0.12705997,-0.12095132,0.31887165,-24.119999,-8.639999,-24.66
1774594653441,1.2018893,1.1109096,11.702858,0.16493362,-0.07941248,0.25045475,-24.84,-9.0,-24.6
1774594653452,0.48362875,0.090979666,10.970232,0.0036651916,-0.007330383,0.172264,-25.32,-9.78,-23.58
1774594653462,0.12928689,-0.50278234,11.15698,-0.12583824,0.009773844,0.18203785,-25.5,-9.9,-23.64
1774594653474,-0.01436521,-1.1109096,11.884817,-0.22235495,-0.0061086523,0.204029,-24.96,-9.3,-24.119999
1774594653485,0.023942016,-1.2689269,12.191275,-0.17959438,-0.034208454,0.18936823,-24.48,-9.059999,-24.24
1774594653495,-0.076614454,-1.733402,12.23437,0.111177474,-0.02687807,0.12461651,-24.6,-8.88,-25.08
1774594653506,-0.19153613,-1.8866309,11.827356,0.25289822,-0.0061086523,0.1001819,-25.08,-9.0,-25.38
1774594653517,-0.30166942,-1.958457,11.123461,0.4129449,0.030543262,0.07452556,-25.92,-8.94,-26.76
1774594653527,-0.38307226,-1.9919758,10.25676,0.5009095,0.05009095,0.056199603,-26.76,-9.12,-26.939999
1774594653537,-0.58897364,-2.0829554,8.882488,0.49480084,0.013439035,0.03176499,-26.939999,-8.94,-26.88
1774594653548,-0.7278373,-2.1021092,8.461109,0.43127087,-0.034208454,0.029321533,-27.0,-9.179999,-26.22
1774594653558,-0.8523358,-2.0159178,8.135497,0.344528,-0.087964594,0.03176499,-27.84,-10.32,-26.88
1774594653568,-1.0295067,-1.7908629,7.9966335,0.18325958,-0.13561209,0.04153884,-27.84,-9.9,-27.18
1774594653578,-1.0869676,-1.6663644,8.054094,0.112399206,-0.13439035,0.05375614,-28.08,-10.44,-27.24
1774594653589,-1.1109096,-1.5897499,8.12592,0.073303826,-0.11728613,0.06719518,-28.32,-10.38,-27.359999
1774594653599,-1.1300632,-1.4796166,8.1402855,0.039095376,-0.09162979,0.087964594,-28.68,-10.74,-27.18
1774594653610,-1.091756,-1.316811,8.058883,0.014660766,-0.04520403,0.13439035,-28.019999,-10.74,-25.98
1774594653620,-1.0295067,-1.2497733,7.9104424,-0.002443461,-0.02565634,0.15515977,-27.359999,-10.32,-26.039999
1774594653630,-0.9720459,-1.1492168,7.776367,-0.036651913,-0.010995574,0.17470746,-26.939999,-10.139999,-25.8
1774594653642,-0.6751649,-0.9672575,7.8050976,-0.10751228,-0.028099801,0.1966986,-28.439999,-10.92,-27.359999
1774594653652,-0.47405192,-0.8858546,7.9487495,-0.15882497,-0.042760566,0.19914207,-27.539999,-10.2,-26.939999
1774594653662,-0.320823,-0.79966336,8.082825,-0.21746802,-0.04642576,0.19303341,-27.66,-10.5,-27.3
1774594653672,-0.17717093,-0.6895301,8.485051,-0.28221974,-0.039095376,0.18081611,-27.0,-9.84,-26.939999
1774594653682,-0.12928689,-0.6655881,8.695741,-0.37873647,-0.002443461,0.172264,-27.72,-10.08,-27.84
1774594653693,-0.12449849,-0.6464345,8.892065,-0.42149702,0.019547688,0.17470746,-28.32,-10.0199995,-27.96
1774594653703,-0.23942018,-0.62249243,9.270349,-0.46303585,0.034208454,0.172264,-28.74,-9.42,-26.939999
1774594653713,-0.33997664,-0.60812724,9.433155,-0.46303585,0.034208454,0.172264,-29.58,-10.08,-26.16
1774594653724,-0.48362875,-0.5650316,9.629479,-0.45937067,0.034208454,0.17592919,-29.64,-9.599999,-26.16
1774594653735,-0.5746084,-0.5315128,9.753978,-0.45204028,0.036651913,0.18203785,-29.519999,-9.42,-26.46
1774594653745,-0.78529817,-0.5650316,9.964667,-0.4092797,0.039095376,0.18692477,-29.4,-9.96,-26.16
1774594653755,-0.8714894,-0.5793968,10.117896,-0.3921755,0.04520403,0.19303341,-29.64,-10.62,-25.56
1774594653765,-0.9576807,-0.59376204,10.228029,-0.3567453,0.05131268,0.20280726,-29.22,-10.26,-25.199999
1774594653775,-0.9624691,-0.6751649,10.170568,-0.312763,0.037873644,0.21502456,-29.519999,-10.38,-24.96
1774594653785,-0.91937345,-0.7038953,10.184934,-0.22602014,-0.028099801,0.23823744,-29.22,-9.12,-25.74
1774594653795,-0.80924016,-0.6847417,10.16578,-0.18325958,-0.05497787,0.25411993,-30.24,-9.84,-25.859999
1774594653805,-0.6703765,-0.6655881,10.108319,-0.14782938,-0.073303826,0.26267207,-29.699999,-8.88,-26.64
1774594653815,-0.521936,-0.641646,10.079589,-0.12095132,-0.089186326,0.26511553,-29.76,-9.059999,-26.76
1774594653825,-0.11492168,-0.5793968,10.0508585,-0.05131268,-0.11728613,0.24801129,-27.96,-7.08,-27.48
1774594653836,0.076614454,-0.5267244,10.1226845,-0.02565634,-0.09773844,0.22968534,-27.9,-6.8399997,-27.359999
1774594653846,0.20111294,-0.45010993,10.127473,-0.0036651916,-0.07941248,0.21624629,-27.9,-6.96,-27.119999
1774594653857,0.22505496,-0.49320555,9.983821,0.06963864,-0.080634214,0.18448131,-28.38,-8.22,-26.16
1774594653867,0.1436521,-0.5315128,9.691729,0.09773844,-0.103847094,0.17592919,-28.74,-9.0,-26.039999
1774594653877,0.08140286,-0.48362875,9.409213,0.10140363,-0.13439035,0.17104226,-28.74,-8.46,-26.099998
1774594653887,0.14844051,-0.32561144,8.710106,0.07941248,-0.18692477,0.15882497,-28.56,-7.98,-26.34
1774594653906,0.6607997,0.06703765,9.92636,-0.12583824,0.10262536,0.004886922,-25.8,-5.2799997,-26.519999
1774594653916,0.3878607,-0.047884032,10.065224,-0.10629055,0.19303341,-0.056199603,-25.439999,-5.2799997,-26.64
1774594653926,0.1388637,-0.10534488,10.170568,-0.06963864,0.22968534,-0.08674286,-25.14,-5.04,-26.519999
1774594653936,0.023942016,-0.038307227,10.247183,0.036651913,0.17715092,-0.12583824,-25.92,-5.7,-26.58
1774594653946,0.009576807,-0.05267244,10.19451,0.09896017,0.12339478,-0.15393804,-25.68,-5.52,-26.279999
1774594653957,-0.0047884034,0.0047884034,10.1226845,0.14049901,0.0842994,-0.17348573,-25.859999,-6.12,-26.22
1774594653970,-0.023942016,0.17717093,9.859323,0.2125811,-0.017104227,-0.23335053,-25.68,-6.6,-25.26
1774594653980,0.01436521,0.17238252,9.811439,0.21502456,-0.06352998,-0.2565634,-26.039999,-6.96,-25.56
1774594653990,0.076614454,0.1388637,9.844957,0.21013765,-0.087964594,-0.2724459,-26.76,-7.68,-26.099998
1774594654000,0.05746084,0.08619126,9.907207,0.19181168,-0.10262536,-0.29565877,-27.42,-7.62,-26.88
1774594654010,0.06703765,0.11971009,9.940725,0.18203785,-0.1001819,-0.29810223,-26.939999,-7.3799996,-26.64
1774594654032,0.033518825,0.19632454,10.022128,0.16493362,0.02076942,-0.33475417,-24.779999,-6.0,-25.68
1774594654042,-0.095768064,0.19632454,9.945514,0.15271631,0.057421334,-0.3371976,-25.14,-6.8399997,-25.619999
1774594654053,-0.22505496,0.16759412,9.902418,0.13072516,0.089186326,-0.33353242,-25.14,-7.14,-25.199999
1774594654063,-0.34476504,0.15322891,9.945514,0.112399206,0.112399206,-0.3286455,-25.5,-7.74,-25.019999
1774594654074,-0.521936,0.076614454,10.070012,0.10995574,0.12950343,-0.30543262,-25.98,-8.22,-25.619999
1774594654085,-0.5793968,0.04309563,10.093954,0.13194689,0.14049901,-0.27977628,-26.16,-8.5199995,-26.46
1774594654095,-0.62728083,0.038307227,10.01734,0.16615535,0.13805555,-0.24923302,-25.98,-8.5199995,-26.4
1774594654105,-0.7086837,0.10055647,9.677363,0.23457226,0.13316862,-0.1881465,-25.859999,-8.58,-26.34
1774594654115,-0.7422025,0.16280572,9.476251,0.27000242,0.12217305,-0.15027285,-25.199999,-8.04,-25.98
1774594654125,-0.7565677,0.22984336,9.251195,0.28955013,0.11484267,-0.119729586,-25.74,-8.5199995,-26.22
1774594654135,-0.7230489,0.33518824,8.987833,0.31398472,0.105068825,-0.07819075,-25.8,-9.059999,-25.8
1774594654146,-0.49799395,0.5506664,8.537724,0.3359759,0.06841691,-0.018325957,-26.039999,-9.12,-25.56
1774594654156,-0.35913026,0.6512229,8.327033,0.33108896,0.06352998,-0.002443461,-25.14,-8.5199995,-25.56
1774594654166,-0.22026655,0.6943185,8.09719,0.29810223,0.061086524,0.010995574,-25.08,-8.76,-25.439999
1774594654177,-0.05746084,0.7038953,7.8625584,0.1881465,0.05009095,0.021991149,-24.359999,-8.639999,-25.74
1774594654187,0.062249243,0.7661445,7.9822683,0.1001819,0.040317107,0.021991149,-24.9,-9.179999,-25.56
1774594654197,0.17717093,0.82360536,8.197746,0.02076942,0.017104227,0.015882496,-25.08,-8.46,-25.26
1774594654252,0.78050977,0.7038953,9.586384,-0.119729586,-0.13194689,-0.07574729,-25.439999,-9.42,-25.019999
1774594654262,0.93373865,0.80445176,9.624691,-0.10262536,-0.15271631,-0.096516706,-26.039999,-10.0199995,-24.6
1774594654272,1.1731589,1.1444284,9.710882,-0.103847094,-0.10629055,-0.14782938,-27.18,-9.48,-25.619999
1774594654282,1.2018893,1.2641385,9.773131,-0.12461651,-0.042760566,-0.18081611,-28.08,-9.96,-26.039999
1774594654292,1.1683705,1.3982137,9.782708,-0.15271631,0.009773844,-0.21380283,-27.9,-9.9,-26.16
1774594654303,1.0342951,1.508347,9.849746,-0.17470746,0.04153884,-0.23701571,-27.119999,-9.96,-25.619999
1774594654313,0.47405192,1.6280571,10.031705,-0.22968534,0.09040806,-0.2883284,-25.68,-9.24,-25.14
1774594654323,0.20111294,1.6663644,10.1226845,-0.24678956,0.09162979,-0.2932153,-25.32,-8.76,-25.26
1774594654333,-0.06703765,1.7429788,10.314221,-0.26267207,0.09162979,-0.29077184,-24.96,-8.5199995,-25.14
1774594654344,-0.45489833,1.7908629,10.654198,-0.2284636,0.073303826,-0.28588495,-24.779999,-8.5199995,-24.72
1774594654354,-0.61291564,1.8100165,10.812215,-0.19547687,0.059864793,-0.28955013,-24.48,-8.28,-24.42
1774594654364,-0.7565677,1.8243817,10.936713,-0.13072516,0.04886922,-0.29565877,-24.42,-8.34,-25.14
1774594654374,-0.89543146,1.8243817,10.912771,-0.04153884,0.029321533,-0.29810223,-24.18,-8.28,-25.5
1774594654384,-1.043872,1.7046716,10.6637745,0.14660765,-0.043982297,-0.27000242,-25.859999,-10.08,-25.74
1774594654395,-1.0007763,1.6376339,10.43872,0.24923302,-0.087964594,-0.2284636,-26.16,-9.96,-25.14
1774594654406,-0.8619126,1.5370775,9.935937,0.33964106,-0.15760323,-0.17592919,-26.519999,-10.32,-24.779999
1774594654416,-0.4309563,1.460463,9.251195,0.40439278,-0.26145032,-0.095294975,-24.3,-8.58,-24.539999
1774594654426,-0.17717093,1.5131354,8.944737,0.40317106,-0.25778514,-0.062308256,-24.0,-8.7,-25.08
1774594654437,0.009576807,1.5610195,8.63828,0.39584067,-0.2565634,-0.04886922,-24.18,-8.76,-25.14
1774594654447,0.1436521,1.6424223,8.389283,0.37140608,-0.24801129,-0.04153884,-24.96,-9.24,-25.14
1774594654457,0.31603462,1.7046716,8.049306,0.30298916,-0.18692477,-0.05009095,-25.14,-9.719999,-25.26
1774594654468,0.36391866,1.7238252,7.9104424,0.2724459,-0.16249016,-0.05497787,-25.32,-9.719999,-24.84
1774594654479,0.39743748,1.6950948,7.8146744,0.22968534,-0.12705997,-0.059864793,-25.5,-9.9,-25.08
1774594654489,0.46926352,1.6998832,7.7093296,0.12583824,-0.04886922,-0.05497787,-25.98,-10.2,-24.84
1774594654499,0.51714754,1.7956513,7.7572136,0.062308256,-0.015882496,-0.05375614,-25.56,-10.139999,-25.14
1774594654509,0.5650316,1.910573,7.8625584,0.007330383,0.015882496,-0.057421334,-25.439999,-10.5,-25.199999
1774594654519,0.60812724,2.0159178,8.010999,-0.04153884,0.04153884,-0.06841691,-25.439999,-10.32,-25.08
1774594654529,0.46447513,2.1212628,8.24563,-0.095294975,0.062308256,-0.09407325,-24.96,-9.9,-25.38
1774594654539,0.35434186,2.1643584,8.336611,-0.12217305,0.062308256,-0.103847094,-24.72,-9.719999,-25.14
1774594654549,0.25378537,2.1978772,8.384495,-0.14905111,0.058643065,-0.10751228,-24.96,-10.26,-25.56
1774594654559,0.14844051,2.231396,8.504205,-0.18325958,0.043982297,-0.10629055,-25.5,-10.74,-25.68
1774594654569,0.0047884034,2.3702598,8.815451,-0.25045475,0.0061086523,-0.096516706,-24.779999,-9.84,-24.779999
1774594654581,-0.076614454,2.3942018,8.987833,-0.267559,-0.013439035,-0.09407325,-24.66,-9.96,-24.119999
1774594654591,-0.21068975,2.4229321,9.212888,-0.28588495,-0.02565634,-0.08307768,-24.359999,-9.54,-23.82
1774594654601,-0.40701428,2.4708161,9.562442,-0.30543262,-0.010995574,-0.04520403,-24.359999,-10.0199995,-23.34
1774594654611,-0.49320555,2.4612393,9.744401,-0.30787608,-0.0012217305,-0.02687807,-24.119999,-9.54,-24.0
1774594654622,-0.5650316,2.4037786,9.921572,-0.30298916,0.009773844,0.0012217305,-23.939999,-9.48,-24.42
1774594654632,-0.59376204,2.3750482,10.146626,-0.2846632,0.018325957,0.029321533,-24.3,-9.78,-24.539999
1774594654642,-0.6895301,2.336741,10.405201,-0.21135938,0.015882496,0.07941248,-24.84,-9.3,-24.24
1774594654652,-0.7278373,2.327164,10.443508,-0.15515977,0.013439035,0.10995574,-25.68,-10.32,-23.88
1774594654662,-0.80924016,2.2840683,10.477027,-0.09162979,0.018325957,0.1441642,-25.8,-10.38,-23.88
1774594654672,-0.8762778,2.3223755,10.213664,0.010995574,0.034208454,0.20525073,-25.619999,-10.74,-24.779999
1774594654683,-0.91458505,2.360683,9.921572,0.05131268,0.028099801,0.24312437,-25.199999,-9.48,-24.779999
1774594654694,-0.89064306,2.3894134,9.68694,0.06841691,0.018325957,0.27000242,-24.66,-8.76,-24.9
1774594654705,-0.7230489,2.4660277,9.3421755,0.06963864,-0.017104227,0.35308012,-24.359999,-8.58,-24.66
1774594654715,-0.58418524,2.5330653,9.260772,0.052534413,-0.02565634,0.3885103,-24.66,-9.12,-25.38
1774594654725,-0.46447513,2.5953147,9.217676,0.040317107,-0.029321533,0.41050145,-24.84,-9.3,-25.199999
1774594654736,-0.22984336,2.7820623,9.097966,-0.019547688,-0.05375614,0.44715336,-24.72,-9.059999,-24.6
1774594654746,-0.1340753,2.743755,8.944737,-0.080634214,-0.05497787,0.45448375,-24.48,-9.24,-23.699999
1774594654756,-0.023942016,2.5474305,9.030929,-0.20769419,-0.061086524,0.46303585,-24.9,-9.42,-23.58
1774594654766,0.047884032,2.3127987,9.394848,-0.3371976,-0.058643065,0.46914452,-24.66,-9.059999,-23.64
1774594654777,0.41180268,1.8770541,10.625467,-0.5021312,-0.09162979,0.48747048,-24.66,-8.58,-24.06
1774594654787,0.6464345,1.7525556,11.195287,-0.548557,-0.13439035,0.48502702,-24.18,-8.34,-24.06
1774594654797,0.90021986,1.5993267,11.832145,-0.5558874,-0.17715092,0.46303585,-24.0,-8.16,-23.58
1774594654808,1.1540052,1.1061212,12.780249,-0.46303585,-0.21135938,0.40194935,-24.48,-8.46,-23.22
1774594654819,1.2449849,0.90979666,13.053187,-0.35430184,-0.20525073,0.3652974,-24.779999,-8.34,-23.16
1774594654830,1.3455414,0.7517793,13.211205,-0.2125811,-0.19181168,0.32742378,-25.5,-8.58,-23.939999
1774594654841,1.436521,0.6991069,13.187263,-0.09285152,-0.17104226,0.30176744,-25.199999,-8.16,-24.06
1774594654850,1.5610195,0.80924016,12.368446,0.18448131,-0.112399206,0.22235495,-25.26,-6.8999996,-24.48
1774594654861,1.5370775,0.80924016,11.731588,0.22968534,-0.09285152,0.18448131,-24.96,-6.6,-23.699999
1774594654871,1.3599066,0.62249243,11.152191,0.21502456,-0.065973446,0.13683382,-25.26,-7.02,-23.699999
1774594654882,0.7565677,-0.35913026,10.979809,0.0012217305,0.008552114,0.09040806,-25.439999,-7.74,-24.119999
1774594654892,0.5602432,-0.7038953,11.372458,-0.07086037,0.0036651916,0.089186326,-25.56,-7.8599997,-24.18
1774594654903,0.4213795,-1.0151415,11.956643,-0.09040806,-0.004886922,0.08307768,-25.8,-8.04,-23.939999
1774594654914,0.25378537,-1.3072342,12.349293,0.03176499,-0.030543262,0.04642576,-26.22,-8.94,-23.22
1774594654924,0.1388637,-1.4987702,12.373235,0.15515977,-0.028099801,0.009773844,-26.519999,-9.0,-23.519999
1774594654935,0.01436521,-1.6903064,12.210428,0.3005457,0.0,-0.028099801,-26.039999,-8.04,-23.76
1774594654946,-0.21068975,-1.9249382,11.075577,0.54733527,0.07941248,-0.062308256,-25.74,-7.9199996,-23.64
1774594654956,-0.2825158,-1.9632454,10.352529,0.6426302,0.09162979,-0.06841691,-25.439999,-7.68,-23.699999
1774594654967,-0.33518824,-1.982399,9.792285,0.68539083,0.07696902,-0.07574729,-25.92,-8.46,-23.519999
1774594654978,-0.47405192,-1.9967642,8.896853,0.69027776,0.018325957,-0.07086037,-25.98,-8.76,-24.06
1774594654989,-0.5746084,-1.9728222,8.561666,0.6609562,-0.013439035,-0.06352998,-26.099998,-8.58,-24.42
1774594655000,-0.6560113,-1.9393034,8.274361,0.6096435,-0.042760566,-0.05375614,-25.8,-8.46,-24.3
1774594655011,-0.7230489,-1.8004397,7.9726915,0.4972443,-0.07086037,-0.02687807,-25.32,-8.58,-23.88
1774594655022,-0.7182605,-1.7381904,7.9343843,0.43982297,-0.081855945,-0.010995574,-24.96,-8.88,-23.64
1774594655032,-0.6799533,-1.661576,7.905654,0.3933972,-0.095294975,0.004886922,-24.42,-8.639999,-23.939999
1774594655042,-0.58897364,-1.5275006,7.881712,0.3213151,-0.09285152,0.02565634,-25.08,-8.94,-24.96
1774594655053,-0.46447513,-1.4221559,7.8290396,0.2761111,-0.09285152,0.035430185,-25.14,-8.88,-25.38
1774594655064,-0.36870706,-1.3503298,7.795521,0.24312437,-0.10629055,0.04153884,-25.38,-9.24,-25.199999
1774594655074,-0.16759412,-1.2354081,7.7093296,0.1282817,-0.15882497,0.062308256,-25.5,-9.3,-24.84
1774594655086,-0.05746084,-1.1587936,7.785944,0.05009095,-0.17470746,0.07696902,-25.8,-9.66,-24.3
1774594655096,0.076614454,-1.1013328,7.8912888,-0.015882496,-0.18448131,0.08552113,-26.22,-9.54,-24.18
1774594655108,0.24420857,-0.93373865,8.298303,-0.19792034,-0.16493362,0.096516706,-25.68,-9.0,-23.699999
1774594655119,0.2825158,-0.8714894,8.523358,-0.25534168,-0.1441642,0.10140363,-25.859999,-8.639999,-24.06
1774594655129,0.29688102,-0.7613561,8.963891,-0.36774087,-0.058643065,0.119729586,-25.74,-8.58,-24.779999
1774594655139,0.22984336,-0.6895301,9.212888,-0.39828414,-0.002443461,0.12705997,-26.16,-8.82,-24.66
1774594655149,0.14844051,-0.61770403,9.404425,-0.41416663,0.042760566,0.12950343,-25.92,-8.7,-24.6
1774594655161,-0.095768064,-0.5602432,9.763555,-0.40194935,0.13072516,0.119729586,-26.58,-9.12,-24.119999
1774594655173,-0.20590134,-0.5793968,9.945514,-0.3811799,0.15393804,0.11484267,-26.58,-9.24,-24.66
1774594655184,-0.33518824,-0.5554548,10.180145,-0.3481932,0.19547687,0.11362094,-26.88,-9.36,-24.48
1774594655194,-0.8858546,-0.6847417,9.821015,-0.22968534,0.1441642,0.13805555,-26.519999,-8.16,-24.24
1774594655205,-1.0103531,-0.6751649,9.557653,-0.19181168,0.065973446,0.16249016,-26.519999,-8.22,-24.18
1774594655216,-0.7182605,-0.40222588,9.203311,-0.1685988,-0.06352998,0.19914207,-26.64,-8.58,-24.359999
1774594655229,-0.45968673,-0.35434186,9.059659,-0.18325958,-0.118507855,0.19425514,-26.64,-8.88,-24.18
1774594655239,0.05746084,-0.46447513,9.423578,-0.2724459,-0.039095376,0.16371189,-27.0,-9.12,-23.699999
1774594655249,0.12449849,-0.47884035,9.452309,-0.29077184,-0.008552114,0.15149458,-26.64,-8.28,-23.58
1774594655260,0.12928689,-0.521936,9.528923,-0.29810223,0.0,0.15271631,-27.06,-8.639999,-23.82
1774594655271,0.22505496,-0.49799395,9.634268,-0.2968805,0.0061086523,0.15149458,-26.82,-8.22,-24.0
1774594655281,0.35434186,-0.521936,9.696517,-0.27000242,0.015882496,0.12705997,-26.699999,-7.98,-24.9
1774594655291,0.33518824,-0.5363012,9.696517,-0.2602286,0.02443461,0.103847094,-26.4,-7.68,-24.72
1774594655301,0.33518824,-0.5746084,9.753978,-0.25900686,0.02687807,0.07941248,-26.4,-7.44,-24.359999
1774594655311,0.320823,-0.47405192,9.940725,-0.24312437,0.017104227,0.039095376,-26.82,-7.68,-23.88
1774594655322,0.31124622,-0.39264908,10.041282,-0.22479841,0.007330383,0.015882496,-27.24,-7.9199996,-24.6
1774594655332,0.34955344,-0.30166942,10.170568,-0.2003638,0.002443461,-0.0061086523,-27.359999,-8.04,-24.96
1774594655343,0.4165911,-0.22505496,10.299856,-0.16126843,-0.002443461,-0.02076942,-27.119999,-7.56,-25.08
1774594655353,0.40701428,-0.30166942,10.405201,-0.06719518,-0.009773844,-0.058643065,-26.58,-7.3199997,-24.539999
1774594655364,0.320823,-0.2633622,10.251971,-0.0036651916,-0.040317107,-0.07696902,-26.279999,-7.08,-24.06
1774594655376,0.3878607,-0.05267244,10.103531,0.06841691,-0.07574729,-0.10873401,-26.099998,-6.7799997,-23.82
1774594655388,0.47884035,-0.01436521,10.0748005,0.08674286,-0.06963864,-0.13316862,-26.16,-6.2999997,-24.359999
1774594655398,0.5650316,0.009576807,10.055647,0.08674286,-0.06841691,-0.15149458,-26.64,-6.8999996,-24.539999
1774594655408,0.6560113,0.07182605,10.16578,0.103847094,-0.06841691,-0.19058995,-27.72,-7.62,-24.6
1774594655418,0.60812724,0.15801731,10.208876,0.11362094,-0.042760566,-0.21746802,-27.72,-7.8599997,-24.539999
1774594655428,0.49320555,0.2873042,10.141838,0.119729586,-0.012217305,-0.23701571,-27.66,-7.8599997,-24.48
1774594655438,0.320823,0.39743748,10.031705,0.111177474,0.02565634,-0.25778514,-27.18,-7.5,-24.6
1774594655449,0.11971009,0.49320555,9.859323,0.057421334,0.096516706,-0.27122417,-26.88,-7.7999997,-24.119999
1774594655459,0.10055647,0.45968673,9.868899,0.014660766,0.12217305,-0.27122417,-27.0,-7.68,-24.359999
1774594655470,0.06703765,0.35913026,9.998186,-0.04153884,0.13561209,-0.26633725,-27.24,-7.98,-23.82
1774594655480,0.033518825,0.15322891,10.606314,-0.0720821,0.12461651,-0.24556783,-27.48,-8.7,-24.3
1774594655490,-0.05746084,0.08140286,10.951078,-0.02565634,0.12705997,-0.21991149,-26.939999,-8.28,-23.88
1774594655500,-0.18195933,0.047884032,11.133038,0.05497787,0.15149458,-0.18325958,-26.64,-7.98,-24.119999
1774594655510,-0.33039984,0.076614454,11.15698,0.16126843,0.17715092,-0.1441642,-26.46,-7.68,-23.46
1774594655520,-0.5746084,0.31124622,10.812215,0.35308012,0.22357668,-0.06841691,-26.519999,-8.46,-24.0
1774594655531,-0.6943185,0.46447513,10.477027,0.4447099,0.24312437,-0.02076942,-26.64,-8.76,-24.119999
1774594655541,-0.7661445,0.5746084,10.13705,0.5009095,0.2565634,0.009773844,-26.4,-8.58,-24.84
1774594655552,-0.8810662,0.7230489,9.308656,0.5888741,0.23823744,0.09162979,-25.859999,-7.74,-24.779999
1774594655562,-0.8571242,0.7757214,8.949526,0.59986967,0.21135938,0.13072516,-26.039999,-8.04,-24.9
1774594655572,-0.79487497,0.79966336,8.734048,0.59986967,0.19425514,0.16126843,-26.22,-8.16,-24.72
1774594655583,-0.63206923,0.79008657,8.537724,0.5852089,0.17470746,0.20647246,-25.98,-8.22,-24.48
1774594655594,-0.33997664,0.81402856,8.178593,0.55955255,0.1441642,0.25534168,-25.56,-8.639999,-24.779999
1774594655604,-0.18195933,0.866701,7.905654,0.53023106,0.12339478,0.2602286,-25.439999,-8.7,-24.9
1774594655615,0.009576807,0.90021986,7.752425,0.47891834,0.08674286,0.25900686,-25.92,-8.88,-25.38
1774594655625,0.521936,0.93373865,7.73806,0.3640757,0.039095376,0.22968534,-25.5,-8.58,-25.08
1774594655636,0.7374141,0.90979666,7.848193,0.28710666,0.02565634,0.20525073,-25.98,-9.24,-25.26
1774594655646,0.8858546,0.90500826,7.9966335,0.20769419,0.02321288,0.17959438,-25.619999,-9.3,-24.72
1774594655656,0.9959879,0.8762778,8.145074,0.15027285,0.029321533,0.16249016,-25.859999,-9.54,-24.539999
1774594655665,1.1252748,0.7565677,8.231265,0.012217305,-0.007330383,0.118507855,-26.58,-10.26,-23.58
1774594655676,1.2545617,0.7517793,8.422802,-0.073303826,-0.017104227,0.096516706,-26.4,-10.26,-23.58
1774594655686,1.4413095,0.81402856,8.6574335,-0.14538592,-0.018325957,0.073303826,-26.4,-10.08,-23.64
1774594655697,1.733402,0.94331545,9.289502,-0.3286455,-0.02443461,-0.02687807,-25.439999,-8.94,-24.48
1774594655707,1.6950948,1.0390835,9.610326,-0.38973203,-0.014660766,-0.09285152,-25.68,-8.82,-24.539999
1774594655717,1.5035586,1.1779473,9.964667,-0.41416663,0.0,-0.1441642,-25.619999,-8.82,-25.019999
1774594655727,1.2258313,1.3263878,10.304645,-0.4251622,0.036651913,-0.20525073,-25.68,-8.58,-24.779999
1774594655737,0.4213795,1.5945383,10.658986,-0.38973203,0.13927728,-0.2773328,-26.16,-9.66,-24.72
1774594655747,-0.01436521,1.6903064,10.6877165,-0.34208453,0.16737708,-0.2932153,-26.64,-10.139999,-23.939999
1774594655757,-0.31603462,1.7860745,10.692505,-0.28710666,0.19303341,-0.29077184,-26.279999,-9.96,-23.88
1774594655767,-0.58418524,1.8914193,10.635044,-0.23457226,0.2125811,-0.2761111,-26.279999,-9.48,-24.119999
1774594655777,-0.8379706,2.0638018,10.453085,-0.14294247,0.20769419,-0.2284636,-25.619999,-8.46,-24.3
1774594655788,-0.89543146,2.1068976,10.275913,-0.103847094,0.172264,-0.19792034,-26.22,-9.0,-24.18
1774594655798,-0.8858546,2.1212628,10.184934,-0.0720821,0.13072516,-0.17592919,-25.98,-8.76,-24.119999
1774594655809,-0.8475474,2.0685902,10.117896,0.040317107,0.004886922,-0.112399206,-26.16,-8.639999,-24.6
1774594655819,-0.7469909,2.0638018,10.0748005,0.11728613,-0.062308256,-0.0720821,-25.92,-8.16,-24.96
1774594655829,-0.59855044,2.0350714,9.969456,0.17959438,-0.111177474,-0.04153884,-25.92,-8.58,-24.96
1774594655839,-0.4309563,1.9871874,9.80665,0.2602286,-0.16737708,-0.008552114,-25.38,-8.4,-24.539999
1774594655850,-0.10055647,1.9440918,9.227253,0.3640757,-0.20769419,0.028099801,-24.84,-8.46,-24.359999
1774594655860,0.07182605,1.910573,8.829816,0.38728857,-0.20769419,0.037873644,-24.84,-8.5199995,-24.24
1774594655871,0.18674773,1.8818425,8.552089,0.37751472,-0.18570304,0.04153884,-25.74,-9.719999,-24.42
1774594655882,0.4165911,1.8004397,8.058883,0.30298916,-0.13194689,0.04520403,-25.98,-9.96,-23.64
1774594655892,0.5554548,1.8148049,7.953538,0.23335053,-0.087964594,0.04520403,-26.16,-9.9,-23.76
1774594655904,0.7182605,1.8579005,7.9343843,0.16371189,-0.05375614,0.039095376,-25.98,-9.54,-23.46
1774594655915,1.0247183,1.9776106,8.197746,0.061086524,0.012217305,0.004886922,-26.64,-10.26,-23.519999
1774594655927,1.043872,2.0446482,8.303091,0.015882496,0.058643065,-0.030543262,-26.519999,-10.5,-23.039999
1774594655937,0.8475474,2.1547816,8.451532,-0.043982297,0.1160644,-0.09285152,-26.039999,-10.5,-23.4
1774594655947,0.7086837,2.15957,8.571242,-0.06841691,0.13194689,-0.11484267,-26.64,-10.92,-23.519999
1774594655958,0.58418524,2.15957,8.724471,-0.081855945,0.13316862,-0.1282817,-26.699999,-10.86,-24.3
1774594655969,0.51714754,2.2122424,8.872911,-0.080634214,0.13194689,-0.13316862,-26.519999,-10.8,-23.76
1774594655980,0.41180268,2.4851813,8.99741,-0.06841691,0.119729586,-0.14782938,-25.859999,-10.08,-24.24
1774594655990,0.33997664,2.5905263,9.040505,-0.065973446,0.11484267,-0.15882497,-25.56,-9.719999,-24.0
1774594656000,0.10055647,2.6384103,9.169792,-0.065973446,0.10140363,-0.17470746,-25.199999,-9.599999,-23.64
1774594656012,-0.04309563,2.6048915,9.284714,-0.06841691,0.09285152,-0.17104226,-24.779999,-9.54,-23.279999
1774594656023,-0.18674773,2.5761611,9.41879,-0.06719518,0.08552113,-0.15760323,-24.96,-9.84,-22.74
1774594656033,-0.34476504,2.542642,9.787497,-0.037873644,0.06352998,-0.118507855,-25.08,-9.96,-22.74
1774594656043,-0.34955344,2.5091233,9.9790325,-0.0012217305,0.05131268,-0.09407325,-25.8,-10.38,-22.56
1774594656053,-0.33997664,2.504335,10.1226845,0.029321533,0.047647487,-0.081855945,-26.22,-10.679999,-22.92
1774594656063,-0.35434186,2.5474305,10.13705,0.07941248,0.047647487,-0.06841691,-26.279999,-10.26,-22.859999
1774594656073,-0.37349546,2.6048915,9.864111,0.16371189,0.014660766,-0.04153884,-26.279999,-10.74,-23.46
1774594656083,-0.3878607,2.5761611,9.734824,0.17592919,-0.007330383,-0.029321533,-25.74,-10.32,-23.64
1774594656093,-0.35434186,2.5378537,9.624691,0.18448131,-0.034208454,-0.008552114,-25.199999,-9.9,-23.939999
1774594656104,-0.2777274,2.5234885,9.548077,0.18203785,-0.05131268,0.015882496,-24.96,-9.599999,-24.18
1774594656114,-0.1340753,2.5809495,9.514558,0.1685988,-0.064751714,0.059864793,-25.439999,-10.44,-23.76
1774594656125,-0.047884032,2.6479871,9.471462,0.16615535,-0.06352998,0.080634214,-25.199999,-10.26,-23.519999
1774594656136,0.033518825,2.7246015,9.476251,0.16249016,-0.05497787,0.09285152,-25.26,-10.74,-23.4
1774594656147,0.12449849,2.8874073,9.437943,0.15027285,-0.02321288,0.10751228,-24.6,-9.84,-23.699999
1774594656157,0.1436521,2.96881,9.385271,0.1282817,-0.007330383,0.11484267,-24.6,-10.0199995,-24.0
1774594656168,0.18674773,3.0597897,9.390059,0.09896017,-0.008552114,0.118507855,-24.359999,-9.54,-23.939999
1774594656179,0.30645782,3.2800562,9.56723,-0.0036651916,-0.04642576,0.11362094,-24.539999,-9.84,-23.4
1774594656189,0.34955344,3.2992098,9.782708,-0.08552113,-0.06719518,0.095294975,-25.38,-10.38,-23.22
1774594656200,0.30166942,3.1316159,10.141838,-0.15027285,-0.07696902,0.080634214,-25.68,-10.679999,-22.8
1774594656211,0.0,2.5570073,11.262324,-0.2602286,-0.05009095,0.065973446,-25.32,-10.44,-23.46
1774594656222,-0.05746084,2.3989902,11.717223,-0.26511553,-0.04520403,0.07696902,-25.199999,-10.74,-23.58
1774594656233,-0.02873042,2.2840683,12.215217,-0.2284636,-0.05497787,0.09285152,-24.84,-10.32,-23.88
1774594656243,0.1340753,2.0350714,12.789825,-0.04642576,-0.07086037,0.10629055,-24.84,-9.96,-23.34
1774594656254,0.2633622,1.9440918,12.899959,0.056199603,-0.0720821,0.105068825,-24.18,-9.0,-23.16
1774594656265,0.33518824,1.7429788,12.354081,0.3408628,-0.02076942,0.05131268,-24.779999,-9.179999,-23.22
1774594656276,0.320823,1.733402,11.678916,0.4166101,-0.002443461,0.030543262,-24.9,-9.54,-23.46
1774594656286,0.22026655,1.5897499,10.850522,0.4373795,0.008552114,0.0036651916,-24.96,-9.84,-23.88
1774594656296,0.023942016,1.13964,10.31901,0.3323107,0.02687807,-0.012217305,-25.38,-10.32,-23.88
1774594656307,-0.47884035,-0.15801731,10.443508,0.02321288,0.061086524,0.028099801,-25.14,-10.139999,-23.58
1774594656318,-0.5554548,-0.47884035,10.82658,-0.12095132,0.02565634,0.07696902,-25.98,-10.8,-23.22
1774594656328,-0.4357447,-0.60333884,11.252748,-0.204029,-0.035430185,0.118507855,-26.22,-10.86,-23.519999
1774594656338,-0.11971009,-0.91458505,12.349293,-0.17348573,-0.095294975,0.12950343,-26.22,-10.8,-23.34
1774594656349,-0.110133275,-1.1109096,12.670115,-0.042760566,-0.080634214,0.10751228,-25.98,-10.0199995,-23.22
1774594656360,-0.21068975,-1.2976574,12.650962,0.13927728,-0.02687807,0.08307768,-25.74,-10.0199995,-22.98
1774594656370,-0.51714754,-1.484405,11.496957,0.45448375,0.10262536,0.062308256,-26.46,-10.44,-23.039999
1774594656382,-0.58897364,-1.5131354,10.697293,0.55833083,0.12217305,0.059864793,-26.46,-11.04,-23.58
1774594656393,-0.60333884,-1.5514427,9.9550905,0.5864306,0.09040806,0.058643065,-25.92,-10.74,-23.16
1774594656403,-0.63206923,-1.661576,8.863335,0.5204572,-0.019547688,0.056199603,-25.199999,-10.2,-23.88
1774594656413,-0.6607997,-1.6807296,8.552089,0.43371433,-0.07574729,0.062308256,-25.019999,-10.139999,-24.0
1774594656425,-0.6847417,-1.4652514,8.418014,0.27366763,-0.13805555,0.08674286,-25.38,-10.559999,-24.359999
1774594656436,-0.7134721,-1.3359646,8.456321,0.22602014,-0.16737708,0.10629055,-25.199999,-10.679999,-24.18
1774594656447,-0.7374141,-1.2354081,8.475474,0.20647246,-0.18692477,0.13316862,-25.92,-11.28,-23.939999
1774594656457,-0.641646,-0.9720459,8.418014,0.21502456,-0.16615535,0.1881465,-26.34,-11.28,-23.88
1774594656469,-0.5410896,-0.8283938,8.255207,0.22724187,-0.1282817,0.2125811,-26.699999,-11.5199995,-24.06
1774594656480,-0.47405192,-0.7230489,8.0445175,0.23701571,-0.1001819,0.22479841,-26.039999,-11.099999,-23.76
1774594656491,-0.51714754,-0.63206923,7.479486,0.1881465,-0.028099801,0.23335053,-26.22,-11.34,-23.699999
1774594656501,-0.56982,-0.6703765,7.273585,0.11484267,-0.008552114,0.23823744,-26.519999,-11.94,-23.4
1774594656512,-0.5554548,-0.6751649,7.335834,-0.07574729,0.02443461,0.25411993,-26.519999,-11.7,-23.82
1774594656522,-0.51714754,-0.641646,7.551312,-0.19058995,0.052534413,0.25778514,-26.88,-12.0,-24.119999
1774594656533,-0.51714754,-0.641646,7.7811556,-0.26511553,0.07086037,0.25289822,-26.82,-11.58,-24.66
1774594656543,-0.5363012,-0.63206923,8.087613,-0.3408628,0.09407325,0.24801129,-26.58,-11.219999,-25.14
1774594656553,-0.5746084,-0.6847417,8.652645,-0.44593164,0.17715092,0.25411993,-26.34,-10.92,-24.72
1774594656563,-0.6368576,-0.7613561,8.686164,-0.46670106,0.15515977,0.26267207,-26.4,-10.38,-24.539999
1774594656574,-0.6512229,-0.7613561,8.8777,-0.48258355,0.103847094,0.27855456,-27.48,-10.92,-24.96
1774594656584,-0.4261679,-0.5793968,8.954314,-0.5216789,0.059864793,0.28955013,-29.039999,-10.32,-25.92
1774594656595,-0.11971009,-0.39264908,9.251195,-0.53878313,-0.014660766,0.28221974,-29.519999,-11.28,-25.92
1774594656615,0.18195933,-0.33518824,10.151415,-0.56077427,0.1600467,0.22602014,-26.88,-9.42,-24.539999
1774594656624,-0.11492168,-0.33997664,10.151415,-0.44715336,0.17592919,0.20525073,-26.4,-8.76,-23.46
1774594656635,-0.11971009,-0.2633622,10.04607,-0.38606682,0.15760323,0.21013765,-26.64,-9.3,-23.46
1774594656645,-0.05746084,-0.20111294,9.868899,-0.34697145,0.13316862,0.2125811,-27.18,-8.94,-23.64
1774594656655,-0.0047884034,-0.19153613,9.682152,-0.31642818,0.096516706,0.204029,-26.82,-8.639999,-24.0
1774594656664,0.009576807,-0.19632454,9.581595,-0.33108896,0.036651913,0.17470746,-27.359999,-8.88,-23.88
1774594656676,0.033518825,-0.12449849,9.725247,-0.3371976,0.02076942,0.16493362,-27.539999,-8.88,-24.3
1774594656686,0.10534488,-0.033518825,9.878476,-0.32253686,-0.007330383,0.15149458,-27.84,-9.0,-24.539999
1774594656696,0.1340753,-0.01436521,10.012551,-0.29932398,-0.012217305,0.13194689,-27.66,-8.4,-25.08
1774594656707,0.06703765,-0.07182605,9.921572,-0.2687807,0.017104227,0.1001819,-26.519999,-7.3799996,-25.019999
1774594656718,-0.009576807,-0.08140286,9.892841,-0.267559,0.028099801,0.081855945,-27.119999,-7.7999997,-24.66
1774594656739,-0.07182605,-0.07182605,10.036493,-0.26267207,0.103847094,0.029321533,-27.599998,-7.7999997,-24.84
1774594656750,-0.14844051,-0.10534488,9.988609,-0.2443461,0.1282817,0.008552114,-26.88,-7.08,-25.019999
1774594656761,-0.30166942,-0.047884032,9.854534,-0.2284636,0.13805555,-0.013439035,-27.779999,-7.98,-24.42
1774594656771,-0.31124622,0.0,9.835381,-0.22113322,0.12339478,-0.018325957,-27.84,-7.9199996,-24.359999
1774594656782,-0.23942018,0.076614454,9.892841,-0.20891592,0.10262536,-0.02687807,-28.14,-7.8599997,-24.42
1774594656792,-0.15801731,0.1436521,9.935937,-0.19425514,0.08674286,-0.037873644,-27.48,-7.56,-24.66
1774594656802,-0.095768064,0.22505496,9.940725,-0.14172074,0.061086524,-0.081855945,-26.82,-6.6,-24.6
1774594656812,-0.10055647,0.24899697,9.916783,-0.119729586,0.05497787,-0.10629055,-27.3,-7.62,-24.539999
1774594656822,-0.11971009,0.2873042,9.911995,-0.09773844,0.04886922,-0.12217305,-27.84,-7.62,-24.72
1774594656832,-0.08140286,0.35434186,9.907207,-0.021991149,0.042760566,-0.16249016,-27.72,-7.7999997,-24.359999
1774594656842,-0.023942016,0.4405331,9.844957,0.007330383,0.035430185,-0.17348573,-27.42,-7.3799996,-24.66
1774594656852,-0.0047884034,0.51714754,9.720459,0.030543262,0.02443461,-0.19914207,-27.18,-7.02,-24.72
1774594656862,-0.076614454,0.48362875,9.624691,0.040317107,0.015882496,-0.2321288,-27.119999,-7.3199997,-24.539999
1774594656872,-0.21068975,0.37349546,9.557653,0.02687807,0.007330383,-0.2565634,-27.0,-7.2,-24.359999
1774594656882,-0.33997664,0.23463176,9.677363,-0.012217305,-0.04153884,-0.27855456,-26.699999,-7.08,-23.699999
