ts,ax,ay,az,gx,gy,gz,mx,my,mz
1782299864620,0.66999,1.050449,9.720745,-0.028376,-6.9e-05,0.029794,-5.2125,-17.75625,-40.012501
1782299864622,0.667598,1.031307,9.622639,-0.036928,0.006039,0.036513,-5.2125,-17.75625,-40.012501
1782299864628,0.667598,1.031307,9.622639,-0.036928,0.006039,0.036513,-6.6375,-15.375001,-40.143753
1782299864630,0.641276,1.009771,9.574783,-0.042426,0.003596,0.043233,-6.6375,-15.375001,-40.143753
1782299864640,0.636491,0.995414,9.634603,-0.043036,0.007872,0.046898,-4.48125,-16.293751,-40.762501
1782299864650,0.643669,0.997807,9.625032,-0.03876,0.017035,0.049952,-6.31875,-15.975,-40.3125
1782299864658,0.653241,1.036092,9.593925,-0.033873,0.022533,0.050563,-6.0,-16.275002,-40.3125
1782299864665,0.653241,1.036092,9.593925,-0.033873,0.027419,0.049952,-6.0,-16.275002,-40.3125
1782299864667,0.674776,1.06002,9.577176,-0.033873,0.027419,0.049952,-6.0,-16.275002,-40.3125
1782299864669,0.674776,1.06002,9.577176,-0.033873,0.027419,0.049952,-5.53125,-15.675,-41.8125
1782299864675,0.658026,1.071985,9.567605,-0.037539,0.023754,0.049341,-5.53125,-15.675,-41.8125
1782299864679,0.658026,1.071985,9.567605,-0.037539,0.023754,0.049341,-5.4,-15.39375,-41.212502
1782299864697,0.636491,1.086342,9.541283,-0.041204,0.020089,0.047509,-5.55,-15.675,-40.762501
1782299864701,0.638884,1.098306,9.567605,-0.047313,0.021922,0.046287,-5.90625,-14.062501,-41.193752
1782299864709,0.634098,1.105484,9.608283,-0.049145,0.0207,0.048119,-6.88125,-15.806251,-41.662502
1782299864717,0.617348,1.095913,9.687246,-0.046702,0.017035,0.050563,-6.88125,-15.806251,-41.662502
1782299864718,0.617348,1.095913,9.687246,-0.046702,0.017035,0.050563,-5.08125,-16.575001,-40.462502
1782299864725,0.614955,1.091127,9.75903,-0.042426,0.009704,0.053006,-5.08125,-16.575001,-40.462502
1782299864729,0.614955,1.091127,9.75903,-0.042426,0.009704,0.053006,-6.1125,-16.556252,-41.231251
1782299864734,0.607777,1.067199,9.828422,-0.036928,-0.003735,0.054228,-6.1125,-16.556252,-41.231251
1782299864740,0.607777,1.067199,9.828422,-0.036928,-0.003735,0.054228,-6.0,-15.675,-41.0625
1782299864743,0.636491,1.057628,9.826029,-0.036928,-0.011065,0.056061,-6.0,-15.675,-41.0625
1782299864750,0.636491,1.057628,9.826029,-0.036928,-0.011065,0.056061,-5.11875,-15.093751,-41.212502
1782299864751,0.638884,1.048056,9.80928,-0.041204,-0.022061,0.058504,-5.11875,-15.093751,-41.212502
1782299864760,0.641276,1.045663,9.845171,-0.041815,-0.028169,0.061559,-5.8125,-15.806251,-42.28125
1782299864769,0.641276,1.045663,9.845171,-0.035706,-0.030002,0.064002,-5.8125,-15.806251,-42.28125
1782299864770,0.629312,1.012164,9.849958,-0.035706,-0.030002,0.064002,-4.95,-15.69375,-40.762501
1782299864777,0.629312,1.01695,9.845171,-0.024711,-0.025726,0.068278,-4.95,-15.69375,-40.762501
1782299864778,0.629312,1.01695,9.845171,-0.024711,-0.025726,0.068278,-5.4,-14.793751,-41.962502
1782299864791,0.629312,1.01695,9.854744,-0.009439,-0.013508,0.071332,-6.09375,-16.106251,-42.731251
1782299864794,0.631705,1.014557,9.780566,0.004611,0.002374,0.074998,-6.09375,-16.106251,-42.731251
1782299864807,0.631705,1.014557,9.780566,0.004611,0.002374,0.074998,-6.20625,-14.343751,-40.443752
1782299864808,0.607777,1.0002,9.708781,0.013163,0.017035,0.079274,-6.20625,-14.343751,-40.443752
1782299864810,0.607777,1.0002,9.708781,0.013163,0.017035,0.079274,-5.90625,-14.062501,-41.193752
1782299864811,0.586242,1.002593,9.651353,0.013774,0.024365,0.082328,-5.90625,-14.062501,-41.193752
1782299864819,0.586242,1.002593,9.651353,0.005222,0.026198,0.085382,-5.90625,-14.062501,-41.193752
1782299864820,0.581456,1.004985,9.703995,0.005222,0.026198,0.085382,-6.16875,-15.093751,-40.912502
1782299864829,0.552742,1.019342,9.749459,-0.008217,0.022533,0.088437,-5.19375,-16.706251,-41.831253
1782299864837,0.526421,0.997807,9.782959,-0.018602,0.011537,0.093323,-5.19375,-16.706251,-41.831253
1782299864838,0.526421,0.997807,9.782959,-0.018602,0.011537,0.093323,-6.16875,-15.375001,-40.912502
1782299864845,0.514457,0.978664,9.847564,-0.022267,0.001763,0.095767,-6.16875,-15.375001,-40.912502
1782299864849,0.514457,0.978664,9.847564,-0.022267,0.001763,0.095767,-5.85,-16.575001,-40.162502
1782299864854,0.502493,0.947558,9.897814,-0.017991,-0.005567,0.099432,-5.85,-16.575001,-40.162502
1782299864860,0.502493,0.947558,9.897814,-0.017991,-0.005567,0.099432,-6.3,-16.25625,-40.762501
1782299864863,0.495314,0.940379,9.873886,-0.004552,-0.005567,0.104319,-6.3,-16.25625,-40.762501
1782299864869,0.495314,0.940379,9.873886,-0.004552,-0.005567,0.104319,-6.3,-16.25625,-40.762501
1782299864871,0.490529,0.964308,9.799708,0.006444,-0.005567,0.109817,-6.3,-16.25625,-40.762501
1782299864879,0.473779,0.969093,9.69921,0.010109,-0.0074,0.116536,-6.675,-14.343751,-40.143753
1782299864890,0.488136,0.933201,9.680068,0.003389,-0.009232,0.122645,-5.86875,-14.793751,-41.662502
1782299864897,0.480957,0.904487,9.742281,-0.009439,-0.015952,0.128143,-5.86875,-14.793751,-41.662502
1782299864899,0.480957,0.904487,9.742281,-0.009439,-0.015952,0.128143,-5.86875,-14.793751,-41.662502
1782299864905,0.48335,0.878166,9.816458,-0.018602,-0.02145,0.13303,-5.86875,-14.793751,-41.662502
1782299864909,0.48335,0.878166,9.816458,-0.018602,-0.02145,0.13303,-4.65,-15.093751,-41.662502
1782299864914,0.48335,0.878166,9.816458,-0.025321,-0.018395,0.136695,-4.65,-15.093751,-41.662502
1782299864915,0.495314,0.844666,9.845171,-0.025321,-0.018395,0.136695,-4.65,-15.093751,-41.662502
1782299864919,0.495314,0.844666,9.845171,-0.025321,-0.018395,0.136695,-4.6125,-15.093751,-42.262501
1782299864922,0.495314,0.844666,9.845171,-0.022267,-0.020839,0.140971,-4.6125,-15.093751,-42.262501
1782299864923,0.488136,0.806381,9.881064,-0.022267,-0.020839,0.140971,-4.6125,-15.093751,-42.262501
1782299864929,0.488136,0.806381,9.881064,-0.022267,-0.020839,0.140971,-6.01875,-15.675,-40.762501
1782299864931,0.488136,0.806381,9.881064,-0.002719,-0.025726,0.146469,-6.01875,-15.675,-40.762501
1782299864933,0.464208,0.79681,9.881064,-0.002719,-0.025726,0.146469,-6.01875,-15.675,-40.762501
1782299864938,0.464208,0.79681,9.881064,-0.002719,-0.025726,0.146469,-5.79375,-16.556252,-41.981251
1782299864940,0.464208,0.79681,9.881064,0.030267,-0.026947,0.151967,-5.79375,-16.556252,-41.981251
1782299864941,0.454636,0.78006,9.837993,0.030267,-0.026947,0.151967,-5.79375,-16.556252,-41.981251
1782299864951,0.430708,0.820738,9.723138,0.071806,-0.014119,0.159908,-8.700001,-16.518751,-40.912502
1782299864960,0.430708,0.820738,9.723138,0.113956,0.008483,0.166016,-8.700001,-16.518751,-40.912502
1782299864961,0.399601,0.887737,9.584354,0.113956,0.008483,0.166016,-6.6,-16.556252,-40.162502
1782299864968,0.385244,0.98345,9.364214,0.148775,0.035972,0.170292,-6.6,-16.556252,-40.162502
1782299864969,0.385244,0.98345,9.364214,0.148775,0.035972,0.170292,-7.48125,-15.937501,-41.831253
1782299864976,0.344566,1.071985,9.19911,0.169544,0.067126,0.173347,-7.48125,-15.937501,-41.831253
1782299864979,0.344566,1.071985,9.19911,0.169544,0.067126,0.173347,-7.65,-15.806251,-41.212502
1782299864983,0.287139,1.150948,9.117754,0.175042,0.096447,0.173347,-7.65,-15.806251,-41.212502
1782299864989,0.287139,1.150948,9.117754,0.175042,0.096447,0.173347,-5.53125,-15.675,-41.8125
1782299865001,0.124427,1.325624,9.022041,0.149997,0.130656,0.172125,-8.85,-16.96875,-40.78125
1782299865010,0.01675,1.421337,9.036397,0.128617,0.11966,0.169071,-5.98125,-15.975,-41.362503
1782299865017,-0.031107,1.471586,9.096219,0.110291,0.107443,0.166627,-5.98125,-15.975,-41.362503
1782299865018,-0.031107,1.471586,9.096219,0.110291,0.107443,0.166627,-6.28125,-15.95625,-41.362503
1782299865026,-0.01675,1.533799,9.098611,0.08891,0.101334,0.166627,-6.28125,-15.95625,-41.362503
1782299865029,-0.01675,1.533799,9.098611,0.08891,0.101334,0.166627,-7.70625,-16.106251,-39.393753
1782299865035,0.01675,1.555335,9.07229,0.057756,0.099502,0.164184,-7.70625,-16.106251,-39.393753
1782299865041,0.01675,1.555335,9.07229,0.057756,0.099502,0.164184,-5.1,-16.575001,-40.162502
1782299865043,0.040678,1.533799,9.098611,0.006444,0.082397,0.160519,-5.1,-16.575001,-40.162502
1782299865050,0.040678,1.533799,9.098611,0.006444,0.082397,0.160519,-6.73125,-16.25625,-41.0625
1782299865051,0.069392,1.4668,9.232609,-0.060141,0.059184,0.159908,-6.73125,-16.25625,-41.0625
1782299865059,0.069392,1.4668,9.232609,-0.060141,0.059184,0.159908,-5.30625,-14.512501,-40.293751
1782299865060,0.119641,1.399801,9.467106,-0.139553,0.040859,0.160519,-5.30625,-14.512501,-40.293751
1782299865069,0.119641,1.399801,9.467106,-0.2153,0.045135,0.164184,-5.30625,-14.512501,-40.293751
1782299865070,0.122034,1.328017,9.747066,-0.2153,0.045135,0.164184,-7.06875,-16.706251,-40.012501
1782299865077,0.117248,1.237089,10.003098,-0.282495,0.061017,0.170292,-7.06875,-16.706251,-40.012501
1782299865078,0.117248,1.237089,10.003098,-0.282495,0.061017,0.170292,-5.25,-14.493751,-42.112503
1782299865085,0.117248,1.237089,10.003098,-0.333197,0.083008,0.177623,-5.25,-14.493751,-42.112503
1782299865086,0.07657,1.122234,10.237595,-0.333197,0.083008,0.177623,-5.25,-14.493751,-42.112503
1782299865088,0.07657,1.122234,10.237595,-0.333197,0.083008,0.177623,-7.8375,-14.906251,-41.362503
1782299865099,0.066999,1.026521,10.481662,-0.360075,0.10561,0.183731,-5.8875,-15.39375,-40.143753
1782299865102,0.066999,1.026521,10.481662,-0.361297,0.125158,0.18984,-5.8875,-15.39375,-40.143753
1782299865103,0.100499,0.949951,10.661125,-0.361297,0.125158,0.18984,-5.8875,-15.39375,-40.143753
1782299865109,0.100499,0.949951,10.661125,-0.361297,0.125158,0.18984,-7.06875,-15.225,-41.0625
1782299865111,0.100499,0.949951,10.661125,-0.344193,0.13371,0.189229,-7.06875,-15.225,-41.0625
1782299865112,0.105284,0.875773,10.728123,-0.344193,0.13371,0.189229,-7.06875,-15.225,-41.0625
1782299865119,0.105284,0.875773,10.728123,-0.344193,0.13371,0.189229,-7.06875,-14.475,-42.112503
1782299865120,0.07657,0.859023,10.773587,-0.319758,0.117827,0.188618,-7.06875,-14.475,-42.112503
1782299865130,0.071785,0.842274,10.783159,-0.286161,0.086063,0.184953,-5.55,-15.243751,-41.362503
1782299865137,0.023928,0.89013,10.744874,-0.239124,0.050632,0.176401,-5.55,-15.243751,-41.362503
1782299865139,0.023928,0.89013,10.744874,-0.239124,0.050632,0.176401,-6.75,-14.925,-41.8125
1782299865146,-0.035892,0.973879,10.546269,-0.167042,0.019478,0.164184,-6.75,-14.925,-41.8125
1782299865149,-0.035892,0.973879,10.546269,-0.167042,0.019478,0.164184,-5.8875,-14.343751,-41.193752
1782299865154,-0.035892,0.973879,10.546269,-0.08763,-0.009232,0.14708,-5.8875,-14.343751,-41.193752
1782299865155,-0.023928,1.088734,10.134703,-0.08763,-0.009232,0.14708,-5.8875,-14.343751,-41.193752
1782299865159,-0.023928,1.088734,10.134703,-0.08763,-0.009232,0.14708,-7.65,-16.106251,-40.912502
1782299865163,0.019143,1.22034,9.603497,-0.014326,-0.040997,0.124478,-7.65,-16.106251,-40.912502
1782299865169,0.019143,1.22034,9.603497,-0.014326,-0.040997,0.124478,-6.76875,-14.925,-41.362503
1782299865171,0.019143,1.22034,9.603497,0.043095,-0.072762,0.100654,-6.76875,-14.925,-41.362503
1782299865172,0.088534,1.397408,9.160824,0.043095,-0.072762,0.100654,-6.76875,-14.925,-41.362503
1782299865179,0.088534,1.397408,9.160824,0.043095,-0.072762,0.100654,-7.10625,-14.475,-41.043751
1782299865180,0.088534,1.397408,9.160824,0.078526,-0.088034,0.074998,-7.10625,-14.475,-41.043751
1782299865181,0.150748,1.581656,8.859329,0.078526,-0.088034,0.074998,-7.10625,-14.475,-41.043751
1782299865191,0.189033,1.718047,8.68226,0.099295,-0.079482,0.054228,-5.90625,-14.062501,-40.893753
1782299865198,0.189033,1.718047,8.68226,0.099906,-0.054436,0.040178,-5.90625,-14.062501,-40.893753
1782299865199,0.205783,1.792224,8.567404,0.099906,-0.054436,0.040178,-5.90625,-14.062501,-40.893753
1782299865212,0.256032,1.892723,8.536298,0.08158,-0.030002,0.028572,-8.1,-13.856251,-43.162502
1782299865214,0.256032,1.892723,8.536298,0.047982,-0.009843,0.021241,-8.1,-13.856251,-43.162502
1782299865215,0.275175,1.9669,8.665511,0.047982,-0.009843,0.021241,-8.1,-13.856251,-43.162502
1782299865219,0.275175,1.9669,8.665511,0.047982,-0.009843,0.021241,-6.825,-13.89375,-40.743752
1782299865223,0.275175,1.9669,8.665511,0.008276,0.01337,0.017576,-6.825,-13.89375,-40.743752
1782299865224,0.301496,1.988436,8.842579,0.008276,0.01337,0.017576,-6.825,-13.89375,-40.743752
1782299865228,0.301496,1.988436,8.842579,0.008276,0.01337,0.017576,-5.8875,-13.312501,-41.943752
1782299865232,0.318245,1.947758,9.014863,-0.033263,0.023754,0.016965,-5.8875,-13.312501,-41.943752
1782299865238,0.318245,1.947758,9.014863,-0.033263,0.023754,0.016965,-5.175,-14.812501,-39.693752
1782299865240,0.325424,1.868794,9.184753,-0.065028,0.020089,0.016965,-5.175,-14.812501,-39.693752
1782299865251,0.33021,1.78026,9.380964,-0.084575,0.002374,0.018187,-5.90625,-14.793751,-40.143753
1782299865257,0.33021,1.78026,9.380964,-0.08763,-0.012287,0.018187,-5.90625,-14.793751,-40.143753
1782299865258,0.325424,1.718047,9.579568,-0.08763,-0.012287,0.018187,-5.90625,-14.793751,-40.143753
1782299865259,0.325424,1.718047,9.579568,-0.08763,-0.012287,0.018187,-6.80625,-14.19375,-41.043751
1782299865266,0.325424,1.718047,9.579568,-0.075412,-0.02145,0.018187,-6.80625,-14.19375,-41.043751
1782299865267,0.323031,1.698904,9.694424,-0.075412,-0.02145,0.018187,-6.80625,-14.19375,-41.043751
1782299865269,0.323031,1.698904,9.694424,-0.075412,-0.02145,0.018187,-6.375,-13.462501,-41.043751
1782299865275,0.325424,1.682154,9.720745,-0.056475,-0.027558,0.019409,-6.375,-13.462501,-41.043751
1782299865280,0.325424,1.682154,9.720745,-0.056475,-0.027558,0.019409,-7.25625,-14.043751,-41.193752
1782299865284,0.339781,1.710868,9.708781,-0.03876,-0.0355,0.020631,-7.25625,-14.043751,-41.193752
1782299865289,0.339781,1.710868,9.708781,-0.03876,-0.0355,0.020631,-8.137501,-14.45625,-41.8125
1782299865292,0.315853,1.732404,9.703995,-0.03143,-0.041608,0.021852,-8.137501,-14.45625,-41.8125
1782299865299,0.315853,1.732404,9.703995,-0.03143,-0.041608,0.021852,-7.29375,-14.043751,-40.143753
1782299865314,0.229711,1.730011,9.725531,-0.040593,-0.048328,0.026128,-4.51875,-14.962501,-41.0625
1782299865317,0.205783,1.739582,9.773387,-0.057697,-0.044663,0.026739,-4.51875,-14.962501,-41.0625
1782299865318,0.205783,1.739582,9.773387,-0.057697,-0.044663,0.026739,-6.9375,-13.293751,-42.243752
1782299865326,0.196211,1.737189,9.854744,-0.078467,-0.0355,0.02735,-6.9375,-13.293751,-42.243752
1782299865329,0.196211,1.737189,9.854744,-0.078467,-0.0355,0.02735,-7.0875,-14.475,-41.362503
1782299865335,0.179462,1.715654,9.988741,-0.094349,-0.015952,0.02735,-7.0875,-14.475,-41.362503
1782299865340,0.179462,1.715654,9.988741,-0.094349,-0.015952,0.02735,-6.9,-15.075001,-41.962502
1782299865343,0.179462,1.715654,9.988741,-0.097403,0.005428,0.025517,-6.9,-15.075001,-41.962502
1782299865344,0.167498,1.696511,10.062919,-0.097403,0.005428,0.025517,-6.9,-15.075001,-41.962502
1782299865349,0.167498,1.696511,10.062919,-0.097403,0.005428,0.025517,-6.9,-15.075001,-41.962502
1782299865352,0.165105,1.694118,10.079669,-0.083354,0.032306,0.024296,-6.9,-15.075001,-41.962502
1782299865359,0.165105,1.694118,10.079669,-0.083354,0.032306,0.024296,-6.7875,-14.925,-40.743752
1782299865360,0.181855,1.694118,10.077276,-0.049145,0.056741,0.018798,-6.7875,-14.925,-40.743752
1782299865370,0.153141,1.727618,10.036598,0.004611,0.071402,0.007802,-5.45625,-13.6125,-41.193752
1782299865377,0.107677,1.816152,9.919349,0.068141,0.073234,-0.002582,-5.45625,-13.6125,-41.193752
1782299865378,0.107677,1.816152,9.919349,0.068141,0.073234,-0.002582,-7.1625,-16.087502,-41.981251
1782299865386,0.114855,1.902294,9.689639,0.126784,0.074456,-0.011134,-7.1625,-16.087502,-41.981251
1782299865388,0.114855,1.902294,9.689639,0.126784,0.074456,-0.011134,-6.35625,-12.712501,-42.09375
1782299865394,0.122034,1.986043,9.471892,0.165268,0.075067,-0.020908,-6.35625,-12.712501,-42.09375
1782299865404,0.098106,2.055435,9.34268,0.178707,0.074456,-0.030682,-6.975,-13.312501,-41.193752
1782299865409,0.098106,2.055435,9.34268,0.178707,0.074456,-0.030682,-6.84375,-13.462501,-40.743752
1782299865412,0.071785,2.117648,9.292429,0.167101,0.073234,-0.035569,-6.84375,-13.462501,-40.743752
1782299865418,0.071785,2.117648,9.292429,0.167101,0.073234,-0.035569,-6.7875,-14.493751,-41.043751
1782299865420,0.081356,2.120041,9.311573,0.13778,0.069569,-0.037402,-6.7875,-14.493751,-41.043751
1782299865430,0.090927,2.074577,9.421642,0.103571,0.065293,-0.041678,-6.825,-13.89375,-40.743752
1782299865437,0.086142,2.043471,9.546069,0.078526,0.051243,-0.047786,-6.825,-13.89375,-40.743752
1782299865438,0.086142,2.043471,9.546069,0.078526,0.051243,-0.047786,-6.84375,-13.462501,-40.743752
1782299865446,0.107677,1.998007,9.627425,0.075471,0.037193,-0.052673,-6.84375,-13.462501,-40.743752
1782299865448,0.107677,1.998007,9.627425,0.075471,0.037193,-0.052673,-5.8125,-15.075001,-42.731251
1782299865455,0.138784,1.947758,9.620246,0.087689,0.020089,-0.05756,-5.8125,-15.075001,-42.731251
1782299865459,0.138784,1.947758,9.620246,0.087689,0.020089,-0.05756,-5.45625,-14.3625,-40.443752
1782299865463,0.136391,1.947758,9.617854,0.118232,0.002985,-0.061225,-5.45625,-14.3625,-40.443752
1782299865468,0.136391,1.947758,9.617854,0.118232,0.002985,-0.061225,-5.2875,-14.512501,-41.043751
1782299865472,0.11007,1.933401,9.610675,0.162825,-0.004345,-0.06489,-5.2875,-14.512501,-41.043751
1782299865479,0.11007,1.933401,9.610675,0.162825,-0.004345,-0.06489,-5.15625,-14.062501,-40.893753
1782299865480,0.119641,1.928615,9.51257,0.205586,-6.9e-05,-0.067334,-5.15625,-14.062501,-40.893753
1782299865490,0.16989,1.954936,9.459927,0.230631,0.003596,-0.072832,-7.18125,-14.75625,-42.731251
1782299865498,0.098106,2.007578,9.476677,0.226966,0.009094,-0.074664,-7.18125,-14.75625,-42.731251
1782299865503,0.098106,2.007578,9.476677,0.226966,0.009094,-0.074664,-4.25625,-14.531251,-40.293751
1782299865507,0.251246,1.782653,9.766209,0.203142,0.035972,-0.053895,-4.25625,-14.531251,-40.293751
1782299865508,0.251246,1.782653,9.766209,0.203142,0.035972,-0.053895,-6.75,-15.675,-41.0625
1782299865516,0.519243,1.899901,9.955242,0.171377,0.078121,-0.027017,-6.75,-15.675,-41.0625
1782299865519,0.519243,1.899901,9.955242,0.171377,0.078121,-0.027017,-7.03125,-13.312501,-39.675003
1782299865523,-0.198604,1.445265,9.780566,0.132893,0.13371,0.032237,-7.03125,-13.312501,-39.675003
1782299865529,-0.198604,1.445265,9.780566,0.132893,0.13371,0.032237,-6.13125,-15.075001,-42.262501
1782299865535,0.019143,1.998007,9.500605,0.082802,0.141651,0.134251,-6.13125,-15.075001,-42.262501
1782299865539,0.019143,1.998007,9.500605,0.082802,0.141651,0.134251,-4.96875,-14.962501,-40.743752
1782299865540,-0.014357,2.242075,9.610675,0.027824,0.117827,0.148912,-4.96875,-14.962501,-40.743752
1782299865549,-0.098106,2.210968,10.237595,0.016217,0.111108,0.129975,-5.4375,-15.093751,-40.143753
1782299865560,-0.100499,2.103291,10.661125,0.066308,0.159977,0.114093,-6.61875,-15.075001,-41.212502
1782299865566,-0.119641,2.081756,10.670696,0.14511,0.18319,0.086604,-6.61875,-15.075001,-41.212502
1782299865568,-0.119641,2.081756,10.670696,0.14511,0.18319,0.086604,-6.01875,-14.94375,-41.362503
1782299865575,-0.198604,2.132005,10.606089,0.20864,0.14104,0.050563,-6.01875,-14.94375,-41.362503
1782299865579,-0.198604,2.132005,10.606089,0.20864,0.14104,0.050563,-7.93125,-15.7875,-41.981251
1782299865583,-0.212961,2.206182,10.842979,0.264839,0.03475,0.011468,-7.93125,-15.7875,-41.981251
1782299865589,-0.212961,2.206182,10.842979,0.264839,0.03475,0.011468,-5.86875,-15.825001,-40.462502
1782299865592,-0.208176,2.098505,11.163617,0.332035,-0.059323,-0.028239,-5.86875,-15.825001,-40.462502
1782299865598,-0.208176,2.098505,11.163617,0.332035,-0.059323,-0.028239,-6.3,-15.225,-41.362503
1782299865600,-0.078963,1.887937,11.273687,0.397397,-0.090477,-0.054506,-6.3,-15.225,-41.362503
1782299865610,-0.0335,1.710868,11.118153,0.429773,-0.108192,-0.069777,-5.4375,-16.143751,-39.693752
1782299865619,0.01675,1.68694,11.027226,0.418777,-0.147288,-0.077719,-5.8125,-16.556252,-41.231251
1782299865626,0.12682,1.79701,11.118153,0.38518,-0.179053,-0.088714,-5.8125,-16.556252,-41.231251
1782299865628,0.12682,1.79701,11.118153,0.38518,-0.179053,-0.088714,-5.625,-14.962501,-39.543751
1782299865635,0.284746,1.85683,11.12294,0.353415,-0.181496,-0.116203,-5.625,-14.962501,-39.543751
1782299865640,0.284746,1.85683,11.12294,0.353415,-0.181496,-0.116203,-5.56875,-15.69375,-40.3125
1782299865643,0.416351,1.854438,10.953049,0.317985,-0.162559,-0.155298,-5.56875,-15.69375,-40.3125
1782299865649,0.416351,1.854438,10.953049,0.317985,-0.162559,-0.155298,-5.08125,-16.575001,-40.912502
1782299865652,0.55992,1.765903,10.680267,0.25812,-0.140568,-0.195616,-5.08125,-16.575001,-40.912502
1782299865658,0.55992,1.765903,10.680267,0.25812,-0.140568,-0.195616,-7.06875,-17.4375,-39.262501
1782299865660,0.717847,1.641476,10.558233,0.168934,-0.12774,-0.232878,-7.06875,-17.4375,-39.262501
1782299865670,0.79681,1.462015,10.632411,0.068141,-0.10636,-0.265254,-4.44375,-15.431251,-38.325001
1782299865679,0.837488,1.265803,10.823836,-0.029597,-0.061767,-0.293354,-6.0,-16.275002,-40.3125
1782299865687,0.830309,1.081556,11.024833,-0.113897,-6.9e-05,-0.317178,-6.0,-16.275002,-40.3125
1782299865689,0.830309,1.081556,11.024833,-0.113897,-6.9e-05,-0.317178,-6.3375,-15.675,-40.3125
1782299865695,0.830309,1.081556,11.024833,-0.175594,0.057963,-0.336114,-6.3375,-15.675,-40.3125
1782299865696,0.787239,0.863809,11.206688,-0.175594,0.057963,-0.336114,-6.3375,-15.675,-40.3125
1782299865700,0.787239,0.863809,11.206688,-0.175594,0.057963,-0.336114,-5.98125,-17.456251,-40.012501
1782299865704,0.758525,0.679562,11.300008,-0.204305,0.093393,-0.347721,-5.98125,-17.456251,-40.012501
1782299865720,0.68674,0.531207,11.31915,-0.200029,0.101334,-0.348943,-6.0,-16.275002,-40.3125
1782299865721,0.665205,0.425922,11.233009,-0.162155,0.081786,-0.34711,-6.0,-16.275002,-40.3125
1782299865730,0.665205,0.425922,11.233009,-0.103512,0.040248,-0.345277,-6.0,-16.275002,-40.3125
1782299865731,0.665205,0.33021,11.118153,-0.103512,0.040248,-0.345277,-4.6875,-16.59375,-39.09375
1782299865740,0.665205,0.33021,11.118153,-0.037539,-0.008011,-0.348943,-4.6875,-16.59375,-39.09375
1782299865741,0.672383,0.253639,11.034404,-0.037539,-0.008011,-0.348943,-4.51875,-17.043751,-38.793751
1782299865747,0.681954,0.224925,11.008084,0.029046,-0.033667,-0.351386,-4.51875,-17.043751,-38.793751
1782299865750,0.681954,0.224925,11.008084,0.029046,-0.033667,-0.351386,-3.9,-16.893751,-39.412502
1782299865755,0.681954,0.224925,11.008084,0.084634,-0.02878,-0.349553,-3.9,-16.893751,-39.412502
1782299865757,0.693919,0.265603,10.876479,0.084634,-0.02878,-0.349553,-3.9,-16.893751,-39.412502
1782299865760,0.693919,0.265603,10.876479,0.084634,-0.02878,-0.349553,-3.88125,-16.59375,-40.162502
1782299865763,0.70349,0.37328,10.515162,0.118843,0.007261,-0.341612,-3.88125,-16.59375,-40.162502
1782299865769,0.70349,0.37328,10.515162,0.118843,0.007261,-0.341612,-5.83125,-16.556252,-40.912502
1782299865772,0.679562,0.533599,10.010276,0.133503,0.050632,-0.327562,-5.83125,-16.556252,-40.912502
1782299865779,0.679562,0.533599,10.010276,0.133503,0.050632,-0.327562,-4.1625,-18.206251,-39.5625
1782299865780,0.679562,0.533599,10.010276,0.134114,0.07018,-0.308015,-4.1625,-18.206251,-39.5625
1782299865782,0.643669,0.698704,9.498212,0.134114,0.07018,-0.308015,-4.1625,-18.206251,-39.5625
1782299865790,0.622134,0.741775,9.146468,0.136558,0.076289,-0.288467,-4.9875,-15.993751,-39.543751
1782299865799,0.648455,0.870987,8.806687,0.132282,0.086063,-0.263422,-4.725,-16.1625,-38.34375
1782299865807,0.72024,1.062413,8.560226,0.129227,0.051243,-0.249983,-4.725,-16.1625,-38.34375
1782299865808,0.72024,1.062413,8.560226,0.129227,0.051243,-0.249983,-2.7375,-16.762501,-38.193752
1782299865830,0.586242,1.229911,8.38555,0.08891,-0.0355,-0.230435,-4.63125,-16.875,-40.162502
1782299865832,0.665205,1.282553,8.471692,0.044317,-0.073373,-0.238376,-4.63125,-16.875,-40.162502
1782299865839,0.665205,1.282553,8.471692,0.044317,-0.073373,-0.238376,-4.63125,-16.875,-40.162502
1782299865842,0.717847,1.292124,8.665511,-0.015548,-0.081314,-0.256091,-4.63125,-16.875,-40.162502
1782299865851,0.753739,1.208375,8.797116,-0.098625,-0.058712,-0.271974,-2.8875,-15.431251,-39.393753
1782299865860,0.748953,1.06002,8.986148,-0.194531,-0.042219,-0.285413,-2.8875,-15.431251,-39.393753
1782299865861,0.748953,1.06002,8.986148,-0.194531,-0.042219,-0.285413,-3.73125,-17.475,-39.5625
1782299865867,0.748953,1.06002,8.986148,-0.295934,-0.034278,-0.294576,-3.73125,-17.475,-39.5625
1782299865868,0.662812,0.811167,9.290037,-0.295934,-0.034278,-0.294576,-3.73125,-17.475,-39.5625
1782299865869,0.662812,0.811167,9.290037,-0.295934,-0.034278,-0.294576,-3.43125,-17.493752,-39.5625
1782299865875,0.605384,0.588634,9.651353,-0.378401,-0.033056,-0.295797,-3.43125,-17.493752,-39.5625
1782299865880,0.605384,0.588634,9.651353,-0.378401,-0.033056,-0.295797,-2.86875,-16.612501,-39.09375
1782299865883,0.605384,0.588634,9.651353,-0.424216,-0.042219,-0.301906,-2.86875,-16.612501,-39.09375
1782299865884,0.543171,0.425922,9.909778,-0.424216,-0.042219,-0.301906,-2.86875,-16.612501,-39.09375
1782299865889,0.543171,0.425922,9.909778,-0.424216,-0.042219,-0.301906,-4.21875,-16.743752,-39.243752
1782299865892,0.502493,0.315853,10.029419,-0.429714,-0.05688,-0.316567,-4.21875,-16.743752,-39.243752
1782299865898,0.502493,0.315853,10.029419,-0.429714,-0.05688,-0.316567,-4.3875,-15.4125,-40.143753
1782299865901,0.497707,0.232104,10.034205,-0.395505,-0.081925,-0.334893,-4.3875,-15.4125,-40.143753
1782299865910,0.447458,0.208176,9.991134,-0.331976,-0.110025,-0.348943,-4.0125,-15.13125,-37.875
1782299865919,0.425922,0.198604,9.845171,-0.248287,-0.111247,-0.346499,-1.95,-15.000001,-40.743752
1782299865927,0.468993,0.256032,9.553248,-0.15849,-0.08498,-0.328173,-1.95,-15.000001,-40.743752
1782299865928,0.468993,0.256032,9.553248,-0.15849,-0.08498,-0.328173,-3.43125,-16.012501,-40.762501
1782299865935,0.521635,0.385244,9.136897,-0.076634,-0.03611,-0.298241,-3.43125,-16.012501,-40.762501
1782299865940,0.521635,0.385244,9.136897,-0.076634,-0.03611,-0.298241,-2.71875,-15.731251,-39.543751
1782299865944,0.591027,0.555135,8.737295,-0.014937,0.026809,-0.265254,-2.71875,-15.731251,-39.543751
1782299865949,0.591027,0.555135,8.737295,-0.014937,0.026809,-0.265254,-3.46875,-16.012501,-39.543751
1782299865952,0.574277,0.727418,8.426228,0.021104,0.076289,-0.238987,-3.46875,-16.012501,-39.543751
1782299865960,0.521635,0.854238,8.25873,0.032711,0.092782,-0.219439,-3.525,-14.55,-39.225002
1782299865970,0.454636,0.942772,8.18216,0.021715,0.0769,-0.204168,-1.8,-15.431251,-40.443752
1782299865979,0.349352,1.012164,8.237196,-0.004552,0.041469,-0.19195,-3.0375,-15.731251,-39.543751
1782299865986,0.272782,1.071985,8.349658,-0.028376,-0.006178,-0.181566,-3.0375,-15.731251,-39.543751
1782299865988,0.272782,1.071985,8.349658,-0.028376,-0.006178,-0.181566,-2.30625,-15.000001,-39.225002
1782299865995,0.241675,1.148555,8.361621,-0.040593,-0.058102,-0.17057,-2.30625,-15.000001,-39.225002
1782299865999,0.241675,1.148555,8.361621,-0.040593,-0.058102,-0.17057,-3.525,-14.250001,-39.525002
1782299866004,0.265603,1.234697,8.263516,-0.043647,-0.105749,-0.160185,-3.525,-14.250001,-39.525002
1782299866009,0.265603,1.234697,8.263516,-0.043647,-0.105749,-0.160185,-2.925,-15.150001,-38.625
1782299866012,0.306281,1.294517,8.174982,-0.043036,-0.147288,-0.151633,-2.925,-15.150001,-38.625
1782299866019,0.306281,1.294517,8.174982,-0.043036,-0.147288,-0.151633,-2.0625,-13.9875,-38.456253
1782299866021,0.346959,1.339981,8.172589,-0.041204,-0.177831,-0.14247,-2.0625,-13.9875,-38.456253
1782299866028,0.346959,1.339981,8.172589,-0.041204,-0.177831,-0.14247,-3.50625,-15.281251,-39.243752
1782299866029,0.378066,1.385444,8.172589,-0.041815,-0.180275,-0.126588,-3.50625,-15.281251,-39.243752
1782299866040,0.392423,1.447658,8.196517,-0.04548,-0.157062,-0.111316,-2.625,-15.150001,-38.325001
1782299866047,0.418744,1.45005,8.206089,-0.054643,-0.119799,-0.098488,-2.625,-15.150001,-38.325001
1782299866048,0.418744,1.45005,8.206089,-0.054643,-0.119799,-0.098488,-3.46875,-15.262501,-40.293751
1782299866055,0.397209,1.462015,8.237196,-0.067471,-0.073373,-0.081995,-3.46875,-15.262501,-40.293751
1782299866058,0.397209,1.462015,8.237196,-0.067471,-0.073373,-0.081995,-3.075,-15.281251,-38.775002
1782299866064,0.5001,1.505085,8.29223,-0.091295,-0.019617,-0.070388,-3.075,-15.281251,-38.775002
1782299866069,0.5001,1.505085,8.29223,-0.091295,-0.019617,-0.070388,-1.8375,-14.400001,-40.143753
1782299866072,0.509671,1.5003,8.411871,-0.112675,0.019478,-0.070388,-1.8375,-14.400001,-40.143753
1782299866078,0.509671,1.5003,8.411871,-0.112675,0.019478,-0.070388,-2.625,-14.85,-39.075001
1782299866081,0.514457,1.488336,8.620047,-0.127336,0.051854,-0.075886,-2.625,-14.85,-39.075001
1782299866088,0.514457,1.488336,8.620047,-0.127336,0.051854,-0.075886,-2.64375,-13.668751,-39.375
1782299866090,0.521635,1.459622,8.900007,-0.131001,0.075067,-0.082606,-2.64375,-13.668751,-39.375
1782299866100,0.497707,1.435694,9.170396,-0.120616,0.084841,-0.091158,-2.90625,-14.400001,-40.143753
1782299866109,0.507278,1.39023,9.380964,-0.10229,0.081176,-0.096655,-2.7375,-15.281251,-39.543751
1782299866116,0.507278,1.39023,9.380964,-0.077856,0.0769,-0.099099,-2.7375,-15.281251,-39.543751
1782299866117,0.524028,1.339981,9.529319,-0.077856,0.0769,-0.099099,-2.7375,-15.281251,-39.543751
1782299866119,0.524028,1.339981,9.529319,-0.077856,0.0769,-0.099099,-1.6875,-15.3,-39.243752
1782299866131,0.51685,1.335195,9.651353,-0.046091,0.081176,-0.096045,-1.6875,-15.3,-39.243752
1782299866132,0.540778,1.354338,9.687246,-0.008217,0.092171,-0.084438,-2.23125,-12.637501,-39.056252
1782299866138,0.540778,1.354338,9.687246,-0.008217,0.092171,-0.084438,-2.6625,-14.118751,-38.306252
1782299866141,0.57667,1.409373,9.653746,0.031489,0.098891,-0.067945,-2.6625,-14.118751,-38.306252
1782299866149,0.57667,1.409373,9.653746,0.031489,0.098891,-0.067945,-2.71875,-15.281251,-40.293751
1782299866150,0.605384,1.495514,9.625032,0.069363,0.100112,-0.045343,-2.71875,-15.281251,-40.293751
1782299866160,0.605384,1.495514,9.625032,0.106015,0.096447,-0.019687,-2.71875,-15.281251,-40.293751
1782299866161,0.629312,1.612762,9.608283,0.106015,0.096447,-0.019687,-3.075,-15.3,-38.475002
1782299866167,0.629312,1.732404,9.550854,0.139612,0.086673,0.000472,-3.075,-15.3,-38.475002
1782299866168,0.629312,1.732404,9.550854,0.139612,0.086673,0.000472,-3.1125,-14.26875,-38.475002
1782299866175,0.629312,1.732404,9.550854,0.162214,0.067126,0.02002,-3.1125,-14.26875,-38.475002
1782299866176,0.574277,1.852045,9.469499,0.162214,0.067126,0.02002,-3.1125,-14.26875,-38.475002
1782299866179,0.574277,1.852045,9.469499,0.162214,0.067126,0.02002,-2.1,-16.181252,-39.693752
1782299866184,0.574277,1.852045,9.469499,0.167101,0.035361,0.042011,-2.1,-16.181252,-39.693752
1782299866185,0.574277,1.919044,9.409678,0.167101,0.035361,0.042011,-2.1,-16.181252,-39.693752
1782299866190,0.574277,1.919044,9.409678,0.167101,0.035361,0.042011,-0.58125,-14.606251,-36.956253
1782299866192,0.574277,1.919044,9.409678,0.151219,-6.9e-05,0.068889,-0.58125,-14.606251,-36.956253
1782299866193,0.552742,1.904687,9.498212,0.151219,-6.9e-05,0.068889,-0.58125,-14.606251,-36.956253
1782299866199,0.552742,1.904687,9.498212,0.151219,-6.9e-05,0.068889,-2.7375,-16.03125,-38.793751
1782299866201,0.497707,1.878366,9.732709,0.131671,-0.025115,0.099432,-2.7375,-16.03125,-38.793751
1782299866209,0.497707,1.878366,9.732709,0.124951,-0.0355,0.130586,-2.8875,-16.181252,-38.643753
1782299866210,0.473779,1.875973,9.967206,0.124951,-0.0355,0.130586,-2.8875,-16.181252,-38.643753
1782299866220,0.473779,1.875973,9.967206,0.143888,-0.044663,0.155021,-0.88125,-14.156251,-37.556252
1782299866221,0.440279,1.89033,10.122739,0.143888,-0.044663,0.155021,-0.88125,-14.156251,-37.556252
1782299866238,0.497707,1.883151,10.213666,0.22269,-0.083758,0.18984,-2.60625,-14.400001,-39.675003
1782299866239,0.497707,1.883151,10.213666,0.22269,-0.083758,0.18984,-2.925,-15.431251,-38.625
1782299866244,0.588634,1.849652,10.247166,0.254455,-0.103916,0.19656,-2.925,-15.431251,-38.625
1782299866250,0.588634,1.849652,10.247166,0.254455,-0.103916,0.19656,-1.74375,-15.01875,-37.725002
1782299866252,0.588634,1.849652,10.247166,0.264839,-0.114301,0.202057,-1.74375,-15.01875,-37.725002
1782299866253,0.629312,1.770689,10.316558,0.264839,-0.114301,0.202057,-1.74375,-15.01875,-37.725002
1782299866259,0.629312,1.770689,10.316558,0.264839,-0.114301,0.202057,-2.79375,-15.000001,-38.475002
1782299866261,0.629312,1.770689,10.316558,0.257509,-0.118577,0.205723,-2.79375,-15.000001,-38.475002
1782299866262,0.638884,1.658226,10.476877,0.257509,-0.118577,0.205723,-2.79375,-15.000001,-38.475002
1782299866269,0.638884,1.658226,10.476877,0.257509,-0.118577,0.205723,-2.00625,-15.3,-38.775002
1782299866270,0.638884,1.490728,10.754445,0.238572,-0.130184,0.204501,-2.00625,-15.3,-38.775002
1782299866280,0.583849,1.316052,11.11576,0.220246,-0.141179,0.200225,-1.33125,-15.76875,-36.206253
1782299866288,0.535992,1.150948,11.503398,0.213527,-0.135681,0.194116,-1.33125,-15.76875,-36.206253
1782299866296,0.461815,1.071985,11.819251,0.229409,-0.128962,0.183731,-1.33125,-15.76875,-36.206253
1782299866299,0.461815,1.071985,11.819251,0.229409,-0.128962,0.183731,-3.675,-15.431251,-38.325001
1782299866304,0.461815,1.071985,11.819251,0.274002,-0.128351,0.173347,-3.675,-15.431251,-38.325001
1782299866305,0.409173,1.088734,12.044176,0.274002,-0.128351,0.173347,-3.675,-15.431251,-38.325001
1782299866310,0.409173,1.088734,12.044176,0.274002,-0.128351,0.173347,-1.425,-16.200001,-37.575001
1782299866313,0.440279,1.196411,12.094425,0.344863,-0.127129,0.166016,-1.425,-16.200001,-37.575001
1782299866319,0.440279,1.196411,12.094425,0.344863,-0.127129,0.166016,-3.50625,-16.3125,-38.493752
1782299866321,0.478565,1.344766,11.938892,0.432827,-0.10636,0.16174,-3.50625,-16.3125,-38.493752
1782299866337,0.509671,1.445265,11.594326,0.522624,-0.057491,0.161129,-3.46875,-16.743752,-39.243752
1782299866340,0.42353,1.567299,11.252152,0.592263,0.007872,0.162962,-2.15625,-16.63125,-37.575001
1782299866347,0.229711,1.820938,11.020048,0.626471,0.055519,0.160519,-2.15625,-16.63125,-37.575001
1782299866349,0.229711,1.820938,11.020048,0.626471,0.055519,0.160519,-2.6625,-15.900001,-36.806252
1782299866357,0.064606,2.065006,10.859728,0.624639,0.082397,0.149523,-2.6625,-15.900001,-36.806252
1782299866359,0.064606,2.065006,10.859728,0.624639,0.082397,0.149523,-3.35625,-16.1625,-38.643753
1782299866365,-0.007178,2.239682,10.747266,0.583711,0.081176,0.13303,-3.35625,-16.1625,-38.643753
1782299866369,-0.007178,2.239682,10.747266,0.583711,0.081176,0.13303,-3.35625,-17.6625,-36.825001
1782299866374,-0.014357,2.239682,10.58934,0.494525,0.068347,0.114704,-3.35625,-17.6625,-36.825001
1782299866379,-0.014357,2.239682,10.58934,0.494525,0.068347,0.114704,-1.8375,-16.200001,-38.325001
1782299866382,0.045464,2.084148,10.46252,0.353415,0.043302,0.096989,-1.8375,-16.200001,-38.325001
1782299866389,0.045464,2.084148,10.46252,0.353415,0.043302,0.096989,-2.90625,-16.63125,-37.575001
1782299866390,0.129212,1.768296,10.507984,0.175653,0.017646,0.085382,-2.90625,-16.63125,-37.575001
1782299866400,0.138784,1.323231,10.77598,-0.010661,-0.00068,0.087215,-2.325,-17.53125,-36.225002
1782299866408,0.083749,0.926022,11.321543,-0.167653,-0.004345,0.109206,-2.325,-17.53125,-36.225002
1782299866409,0.083749,0.926022,11.321543,-0.167653,-0.004345,0.109206,-2.325,-16.331251,-37.425003
1782299866416,0.083749,0.926022,11.321543,-0.25745,0.021922,0.146469,-2.325,-16.331251,-37.425003
1782299866417,0.045464,0.619741,11.888643,-0.25745,0.021922,0.146469,-2.325,-16.331251,-37.425003
1782299866419,0.045464,0.619741,11.888643,-0.25745,0.021922,0.146469,-2.025,-17.53125,-36.225002
1782299866425,0.045464,0.342174,12.18296,-0.261726,0.066515,0.184953,-2.025,-17.53125,-36.225002
1782299866430,0.045464,0.342174,12.18296,-0.261726,0.066515,0.184953,-2.1375,-17.38125,-37.275002
1782299866446,0.052642,0.234497,11.764216,-0.098014,0.106832,0.27475,-0.50625,-17.1,-36.975002
1782299866449,0.052642,0.234497,11.764216,-0.098014,0.106832,0.27475,-2.3625,-15.3,-37.40625
1782299866450,0.09332,0.413958,11.393328,0.044317,0.033528,0.29552,-2.3625,-15.3,-37.40625
1782299866460,0.239282,0.574277,10.917157,0.179318,-0.012898,0.306515,-1.875,-15.450001,-38.325001
1782299866468,0.181855,0.78006,10.280666,0.288663,-0.049549,0.32423,-1.40625,-17.38125,-36.825001
1782299866476,0.189033,1.098306,9.589139,0.353415,-0.095364,0.351108,-1.40625,-17.38125,-36.825001
1782299866478,0.189033,1.098306,9.589139,0.353415,-0.095364,0.351108,-2.04375,-17.1,-35.90625
1782299866484,0.200997,1.342373,8.971792,0.358302,-0.131405,0.375543,-2.04375,-17.1,-35.90625
1782299866489,0.200997,1.342373,8.971792,0.358302,-0.131405,0.375543,-2.0625,-17.1,-35.606251
1782299866493,0.177069,1.552942,8.68226,0.310043,-0.154618,0.390204,-2.0625,-17.1,-35.606251
1782299866498,0.177069,1.552942,8.68226,0.310043,-0.154618,0.390204,-1.275,-17.1,-36.225002
1782299866501,0.141177,1.694118,8.519548,0.231853,-0.147899,0.396312,-1.275,-17.1,-36.225002
1782299866508,0.141177,1.694118,8.519548,0.231853,-0.147899,0.396312,-3.1125,-15.750001,-36.956253
1782299866511,0.12682,1.751546,8.368801,0.13839,-0.121632,0.397534,-3.1125,-15.750001,-36.956253
1782299866520,0.105284,1.684547,8.273087,0.029656,-0.100251,0.393869,-3.6,-18.675001,-37.59375
1782299866527,0.112463,1.4668,8.392728,-0.079077,-0.090477,0.385928,-3.6,-18.675001,-37.59375
1782299866528,0.112463,1.4668,8.392728,-0.079077,-0.090477,0.385928,-1.44375,-16.650002,-36.525002
1782299866536,0.114855,1.18684,8.687046,-0.162766,-0.078871,0.374321,-1.44375,-16.650002,-36.525002
1782299866538,0.114855,1.18684,8.687046,-0.162766,-0.078871,0.374321,-0.84375,-16.21875,-36.506252
1782299866544,0.112463,0.937986,8.986148,-0.204916,-0.059323,0.361493,-0.84375,-16.21875,-36.506252
1782299866549,0.112463,0.937986,8.986148,-0.204916,-0.059323,0.361493,-3.075,-16.78125,-36.975002
1782299866553,0.141177,0.732204,9.179967,-0.207359,-0.030002,0.347443,-3.075,-16.78125,-36.975002
1782299866558,0.141177,0.732204,9.179967,-0.207359,-0.030002,0.347443,-3.75,-15.900001,-36.056252
1782299866561,0.198604,0.583849,9.278073,-0.184757,0.003596,0.332782,-3.75,-15.900001,-36.056252
1782299866568,0.198604,0.583849,9.278073,-0.184757,0.003596,0.332782,-3.43125,-16.181252,-36.056252
1782299866570,0.236889,0.538385,9.287644,-0.15177,0.023754,0.319954,-3.43125,-16.181252,-36.056252
1782299866580,0.299103,0.562313,9.225431,-0.120005,0.036582,0.307126,-3.43125,-15.900001,-36.506252
1782299866587,0.37328,0.617348,9.115361,-0.097403,0.037193,0.291244,-3.43125,-15.900001,-36.506252
1782299866588,0.37328,0.617348,9.115361,-0.097403,0.037193,0.291244,-3.375,-16.181252,-37.575001
1782299866596,0.428315,0.648455,9.034005,-0.092517,0.0207,0.269863,-3.375,-16.181252,-37.575001
1782299866599,0.428315,0.648455,9.034005,-0.092517,0.0207,0.269863,-3.39375,-15.88125,-37.575001
1782299866604,0.521635,0.665205,9.026826,-0.105956,-0.01473,0.242985,-3.39375,-15.88125,-37.575001
1782299866610,0.521635,0.665205,9.026826,-0.105956,-0.01473,0.242985,-3.6375,-16.612501,-38.34375
1782299866613,0.583849,0.631705,9.117754,-0.13039,-0.057491,0.209388,-3.6375,-16.612501,-38.34375
1782299866619,0.583849,0.631705,9.117754,-0.13039,-0.057491,0.209388,-3.7125,-15.88125,-37.275002
1782299866622,0.622134,0.638884,9.282858,-0.153603,-0.107582,0.172125,-3.7125,-15.88125,-37.275002
1782299866629,0.622134,0.638884,9.282858,-0.153603,-0.107582,0.172125,-4.4625,-15.88125,-37.275002
1782299866630,0.61017,0.667598,9.388143,-0.164599,-0.149731,0.135473,-4.4625,-15.88125,-37.275002
1782299866640,0.567099,0.70349,9.354643,-0.157879,-0.174777,0.101265,-4.6125,-16.3125,-36.675003
1782299866647,0.555135,0.756132,9.244573,-0.128558,-0.181496,0.075608,-4.6125,-16.3125,-36.675003
1782299866648,0.555135,0.756132,9.244573,-0.128558,-0.181496,0.075608,-3.6,-15.000001,-36.65625
1782299866656,0.583849,0.832702,8.995719,-0.082132,-0.15584,0.056061,-3.6,-15.000001,-36.65625
1782299866658,0.583849,0.832702,8.995719,-0.082132,-0.15584,0.056061,-2.175,-15.450001,-38.325001
1782299866665,0.562313,0.940379,8.672689,-0.022878,-0.108803,0.043843,-2.175,-15.450001,-38.325001
1782299866669,0.562313,0.940379,8.672689,-0.022878,-0.108803,0.043843,-2.85,-14.26875,-37.40625
1782299866673,0.512064,1.067199,8.306587,0.044928,-0.047106,0.037735,-2.85,-14.26875,-37.40625
1782299866680,0.512064,1.067199,8.306587,0.044928,-0.047106,0.037735,-3.88125,-16.331251,-35.90625
1782299866682,0.476172,1.227518,7.966806,0.107847,0.01337,0.03468,-3.88125,-16.331251,-35.90625
1782299866688,0.476172,1.227518,7.966806,0.107847,0.01337,0.03468,-2.6625,-14.868751,-37.875
1782299866690,0.445065,1.349552,7.746666,0.154884,0.072623,0.027961,-2.6625,-14.868751,-37.875
1782299866700,0.404387,1.464407,7.627025,0.177486,0.124547,0.015133,-4.29375,-16.762501,-36.675003
1782299866709,0.368495,1.545763,7.579169,0.170766,0.138597,-0.005637,-2.7375,-17.512501,-37.443752
1782299866716,0.327817,1.603191,7.619847,0.135947,0.109275,-0.030682,-2.7375,-17.512501,-37.443752
1782299866718,0.327817,1.603191,7.619847,0.135947,0.109275,-0.030682,-3.375,-15.431251,-38.325001
1782299866725,0.368495,1.629512,7.732309,0.084634,0.044524,-0.056338,-3.375,-15.431251,-38.325001
1782299866729,0.368495,1.629512,7.732309,0.084634,0.044524,-0.056338,-2.23125,-15.468751,-36.506252
1782299866733,0.397209,1.636691,7.892629,0.029046,-0.020228,-0.082606,-2.23125,-15.468751,-36.506252
1782299866739,0.397209,1.636691,7.892629,0.029046,-0.020228,-0.082606,-3.09375,-16.03125,-37.425003
1782299866743,0.413958,1.612762,8.079269,-0.01738,-0.062988,-0.105208,-3.09375,-16.03125,-37.425003
1782299866748,0.413958,1.612762,8.079269,-0.01738,-0.062988,-0.105208,-2.79375,-15.750001,-37.425003
1782299866750,0.413958,1.598405,8.14866,-0.043036,-0.080093,-0.12109,-2.79375,-15.750001,-37.425003
1782299866760,0.409173,1.588834,8.189338,-0.046091,-0.089867,-0.131475,-2.34375,-15.3,-37.725002
1782299866769,0.401994,1.598405,8.285052,-0.027765,-0.086812,-0.136973,-2.34375,-15.3,-37.725002
1782299866776,0.351745,1.612762,8.387943,0.000335,-0.066043,-0.137583,-2.34375,-15.3,-37.725002
1782299866778,0.351745,1.612762,8.387943,0.000335,-0.066043,-0.137583,-2.86875,-13.9875,-36.956253
1782299866785,0.301496,1.629512,8.486048,0.033932,-0.024504,-0.133307,-2.86875,-13.9875,-36.956253
1782299866789,0.301496,1.629512,8.486048,0.033932,-0.024504,-0.133307,-2.6625,-15.150001,-37.575001
1782299866793,0.270389,1.639084,8.565012,0.065697,0.010926,-0.12842,-2.6625,-15.150001,-37.575001
1782299866798,0.270389,1.639084,8.565012,0.065697,0.010926,-0.12842,-1.48125,-14.137501,-37.556252
1782299866802,0.248854,1.667797,8.672689,0.092576,0.031085,-0.124755,-1.48125,-14.137501,-37.556252
1782299866808,0.248854,1.667797,8.672689,0.092576,0.031085,-0.124755,-2.34375,-14.56875,-38.475002
1782299866810,0.236889,1.739582,8.77558,0.116399,0.031696,-0.124755,-2.34375,-14.56875,-38.475002
1782299866819,0.263211,1.706083,8.888043,0.129227,0.032306,-0.118647,-2.34375,-14.56875,-38.475002
1782299866820,0.263211,1.706083,8.888043,0.129227,0.032306,-0.118647,-1.25625,-16.35,-37.725002
1782299866829,0.222533,1.954936,8.785151,0.126173,0.015813,-0.105208,-1.7625,-14.56875,-37.706253
1782299866836,0.148355,2.120041,8.821044,0.128617,-0.05016,-0.106429,-1.7625,-14.56875,-37.706253
1782299866839,0.148355,2.120041,8.821044,0.128617,-0.05016,-0.106429,-0.99375,-15.31875,-37.725002
1782299866845,0.323031,2.172683,9.005291,0.126173,-0.078871,-0.11376,-0.99375,-15.31875,-37.725002
1782299866849,0.323031,2.172683,9.005291,0.126173,-0.078871,-0.11376,-1.78125,-15.31875,-36.65625
1782299866853,0.320638,2.179862,9.122539,0.128006,-0.068486,-0.116814,-1.78125,-15.31875,-36.65625
1782299866859,0.320638,2.179862,9.122539,0.128006,-0.068486,-0.116814,-1.25625,-16.35,-37.725002
1782299866862,0.320638,2.218147,9.160824,0.129227,-0.055658,-0.108262,-1.25625,-16.35,-37.725002
1782299866868,0.320638,2.218147,9.160824,0.129227,-0.055658,-0.108262,-2.0625,-15.01875,-37.725002
1782299866870,0.272782,2.251646,9.179967,0.113956,-0.036721,-0.100321,-2.0625,-15.01875,-37.725002
1782299866879,0.18664,2.237289,9.378571,0.085245,-0.025115,-0.095434,-2.8125,-15.3,-37.40625
1782299866889,0.145962,2.206182,9.66571,0.058978,-0.008622,-0.091158,-1.3125,-15.31875,-36.956253
1782299866896,0.155533,2.120041,9.890635,0.032711,0.031085,-0.086882,-1.3125,-15.31875,-36.956253
1782299866898,0.155533,2.120041,9.890635,0.032711,0.031085,-0.086882,-1.03125,-14.587501,-36.956253
1782299866904,0.215354,2.041078,10.163417,-0.001498,0.059184,-0.083216,-1.03125,-14.587501,-36.956253
1782299866909,0.215354,2.041078,10.163417,-0.001498,0.059184,-0.083216,-2.26875,-13.387501,-37.556252
1782299866913,0.260818,1.957329,10.596518,-0.036317,0.07018,-0.086882,-2.26875,-13.387501,-37.556252
1782299866919,0.260818,1.957329,10.596518,-0.036317,0.07018,-0.086882,-2.325,-15.000001,-38.775002
1782299866922,0.267996,1.85683,11.120546,-0.052199,0.060406,-0.090547,-2.325,-15.000001,-38.775002
1782299866928,0.267996,1.85683,11.120546,-0.052199,0.060406,-0.090547,-2.64375,-16.63125,-36.825001
1782299866931,0.263211,1.741975,11.613468,-0.03815,0.048189,-0.096655,-2.64375,-16.63125,-36.825001
1782299866939,0.263211,1.741975,11.613468,-0.007606,0.052465,-0.100321,-2.64375,-16.63125,-36.825001
1782299866940,0.258425,1.574477,11.950856,-0.007606,0.052465,-0.100321,-2.64375,-16.63125,-36.825001
1782299866941,0.258425,1.574477,11.950856,-0.007606,0.052465,-0.100321,-0.91875,-16.050001,-39.243752
1782299866962,0.284746,1.421337,12.190138,0.076082,0.107443,-0.089936,-1.14375,-16.21875,-36.825001
1782299866965,0.256032,1.531407,12.089639,0.139001,0.144095,-0.08566,-1.14375,-16.21875,-36.825001
1782299866969,0.256032,1.531407,12.089639,0.139001,0.144095,-0.08566,-1.05,-15.0375,-36.206253
1782299866974,0.198604,1.720439,11.862321,0.216581,0.167918,-0.079551,-1.05,-15.0375,-36.206253
1782299866979,0.198604,1.720439,11.862321,0.216581,0.167918,-0.079551,-0.1875,-14.587501,-39.993752
1782299866982,0.189033,1.945365,11.587146,0.301491,0.164864,-0.077108,-0.1875,-14.587501,-39.993752
1782299866989,0.189033,1.945365,11.587146,0.301491,0.164864,-0.077108,-0.0375,-16.668751,-37.875
1782299866991,0.239282,2.151148,11.254545,0.368686,0.134932,-0.07833,-0.0375,-16.668751,-37.875
1782299867000,0.339781,2.316252,11.005691,0.391288,0.098891,-0.07833,-1.44375,-15.468751,-37.575001
1782299867009,0.382852,2.459822,10.883657,0.360134,0.057352,-0.074664,-1.25625,-15.01875,-38.775002
1782299867017,0.454636,2.57707,10.821443,0.288052,0.012759,-0.07161,-1.25625,-15.01875,-38.775002
1782299867019,0.454636,2.57707,10.821443,0.288052,0.012759,-0.07161,-1.425,-16.950001,-36.825001
1782299867025,0.454636,2.57707,10.821443,0.182373,-0.037332,-0.074053,-1.425,-16.950001,-36.825001
1782299867026,0.550349,2.634498,10.752052,0.182373,-0.037332,-0.074053,-1.425,-16.950001,-36.825001
1782299867029,0.550349,2.634498,10.752052,0.182373,-0.037332,-0.074053,-1.3875,-16.650002,-37.875
1782299867033,0.550349,2.634498,10.752052,0.054091,-0.086812,-0.08566,-1.3875,-16.650002,-37.875
1782299867034,0.658026,2.522035,10.694623,0.054091,-0.086812,-0.08566,-1.3875,-16.650002,-37.875
1782299867039,0.658026,2.522035,10.694623,0.054091,-0.086812,-0.08566,-0.9,-18.262501,-37.743752
1782299867042,0.658026,2.522035,10.694623,-0.090684,-0.137514,-0.104597,-0.9,-18.262501,-37.743752
1782299867043,0.799203,2.249253,10.646767,-0.090684,-0.137514,-0.104597,-0.9,-18.262501,-37.743752
1782299867063,0.875773,1.497907,10.88605,-0.38451,-0.242583,-0.146746,-0.075,-16.21875,-36.825001
1782299867069,0.89013,1.12702,11.197116,-0.485303,-0.270683,-0.157131,-0.075,-16.21875,-36.825001
1782299867070,0.89013,1.12702,11.197116,-0.485303,-0.270683,-0.157131,-0.99375,-16.800001,-36.225002
1782299867077,0.921237,0.808774,11.505791,-0.526841,-0.274348,-0.162018,-0.99375,-16.800001,-36.225002
1782299867079,0.921237,0.808774,11.505791,-0.526841,-0.274348,-0.162018,-0.75,-16.200001,-39.693752
1782299867085,0.909273,0.557528,11.646967,-0.505461,-0.24747,-0.162018,-0.75,-16.200001,-39.693752
1782299867090,0.909273,0.557528,11.646967,-0.505461,-0.24747,-0.162018,-1.275,-15.31875,-38.175003
1782299867094,0.909273,0.557528,11.646967,-0.431546,-0.210818,-0.154688,-1.275,-15.31875,-38.175003
1782299867095,0.87338,0.454636,11.582361,-0.431546,-0.210818,-0.154688,-1.275,-15.31875,-38.175003
1782299867100,0.87338,0.454636,11.582361,-0.431546,-0.210818,-0.154688,1.275,-15.056251,-37.706253
1782299867102,0.87338,0.454636,11.582361,-0.327089,-0.158894,-0.138194,1.275,-15.056251,-37.706253
1782299867103,0.859023,0.454636,11.362221,-0.327089,-0.158894,-0.138194,1.275,-15.056251,-37.706253
1782299867109,0.859023,0.454636,11.362221,-0.327089,-0.158894,-0.138194,-2.15625,-14.85,-39.375
1782299867111,0.859023,0.454636,11.362221,-0.210413,-0.088034,-0.114981,-2.15625,-14.85,-39.375
1782299867112,0.89013,0.490529,11.008084,-0.210413,-0.088034,-0.114981,-2.15625,-14.85,-39.375
1782299867121,0.859023,0.574277,10.651553,-0.103512,-0.006789,-0.093601,-0.4875,-15.76875,-38.475002
1782299867130,0.777667,0.681954,10.376379,-0.016158,0.068347,-0.07833,-1.70625,-14.56875,-39.525002
1782299867137,0.732204,0.856631,10.129918,0.040041,0.127601,-0.07161,-1.70625,-14.56875,-39.525002
1782299867139,0.732204,0.856631,10.129918,0.040041,0.127601,-0.07161,-0.7875,-15.468751,-39.09375
1782299867146,0.70349,0.995414,9.821244,0.063254,0.162421,-0.073443,-0.7875,-15.468751,-39.09375
1782299867152,0.70349,0.995414,9.821244,0.063254,0.162421,-0.073443,-0.225,-15.76875,-37.725002
1782299867154,0.662812,1.062413,9.486249,0.04615,0.160588,-0.081995,-0.225,-15.76875,-37.725002
1782299867160,0.662812,1.062413,9.486249,0.04615,0.160588,-0.081995,-0.3375,-15.168751,-39.393753
1782299867162,0.667598,1.038485,9.263716,-0.006385,0.130656,-0.092379,-0.3375,-15.168751,-39.393753
1782299867168,0.667598,1.038485,9.263716,-0.006385,0.130656,-0.092379,-1.2375,-14.56875,-39.993752
1782299867171,0.696311,0.9667,9.196717,-0.069304,0.087284,-0.109484,-1.2375,-14.56875,-39.993752
1782299867178,0.696311,0.9667,9.196717,-0.069304,0.087284,-0.109484,0.525,-14.606251,-38.475002
1782299867179,0.734597,0.844666,9.187146,-0.123671,0.047578,-0.133918,0.525,-14.606251,-38.475002
1782299867189,0.782453,0.684347,9.203895,-0.156046,0.026809,-0.160185,-0.9375,-15.31875,-39.243752
1782299867196,0.830309,0.567099,9.194324,-0.168875,0.018257,-0.18462,-0.9375,-15.31875,-39.243752
1782299867198,0.830309,0.567099,9.194324,-0.168875,0.018257,-0.18462,1.44375,-14.156251,-39.375
1782299867205,0.875773,0.490529,9.196717,-0.162155,0.010926,-0.206611,1.44375,-14.156251,-39.375
1782299867208,0.875773,0.490529,9.196717,-0.162155,0.010926,-0.206611,0.0,-15.168751,-40.443752
1782299867214,0.880559,0.473779,9.179967,-0.139553,-0.00068,-0.22677,0.0,-15.168751,-40.443752
1782299867219,0.880559,0.473779,9.179967,-0.139553,-0.00068,-0.22677,-0.76875,-15.168751,-39.693752
1782299867222,0.830309,0.504886,9.112968,-0.105956,0.002985,-0.242041,-0.76875,-15.168751,-39.693752
1782299867228,0.830309,0.504886,9.112968,-0.105956,0.002985,-0.242041,1.25625,-13.575001,-38.456253
1782299867231,0.768096,0.540778,8.967006,-0.071747,0.012148,-0.254259,1.25625,-13.575001,-38.456253
1782299867240,0.681954,0.574277,8.74208,-0.050978,0.0207,-0.265865,1.25625,-13.575001,-38.456253
1782299867249,0.579063,0.586242,8.531512,-0.054032,0.040248,-0.274417,-1.35,-15.450001,-40.143753
1782299867259,0.4666,0.629312,8.471692,-0.081521,0.051243,-0.277471,-1.35,-15.450001,-40.143753
1782299867265,0.382852,0.66999,8.543477,-0.124281,0.06285,-0.272585,-1.35,-15.450001,-40.143753
1782299867268,0.382852,0.66999,8.543477,-0.124281,0.06285,-0.272585,0.8625,-14.00625,-40.293751
1782299867274,0.339781,0.684347,8.646368,-0.171318,0.078121,-0.264032,0.8625,-14.00625,-40.293751
1782299867279,0.339781,0.684347,8.646368,-0.171318,0.078121,-0.264032,-0.15,-15.01875,-40.293751
1782299867282,0.320638,0.70349,8.74208,-0.204916,0.103167,-0.253648,-0.15,-15.01875,-40.293751
1782299867288,0.320638,0.70349,8.74208,-0.204916,0.103167,-0.253648,1.63125,-14.00625,-40.293751
1782299867291,0.277567,0.748953,8.763616,-0.217744,0.11966,-0.239598,1.63125,-14.00625,-40.293751
1782299867299,0.277567,0.748953,8.763616,-0.217744,0.11966,-0.239598,0.675,-13.70625,-39.075001
1782299867300,0.270389,0.820738,8.684653,-0.206748,0.12699,-0.221272,0.675,-13.70625,-39.075001
1782299867310,0.258425,0.875773,8.550655,-0.171318,0.13371,-0.201113,0.6,-15.31875,-39.993752
1782299867318,0.236889,0.964308,8.421443,-0.120616,0.131267,-0.184009,0.6,-15.31875,-39.993752
1782299867319,0.236889,0.964308,8.421443,-0.120616,0.131267,-0.184009,1.2,-13.70625,-41.193752
1782299867326,0.236889,1.105484,8.234802,-0.061973,0.123936,-0.168738,1.2,-13.70625,-41.193752
1782299867329,0.236889,1.105484,8.234802,-0.061973,0.123936,-0.168738,2.26875,-13.406251,-41.943752
1782299867334,0.236889,1.105484,8.234802,-0.005774,0.10561,-0.152855,2.26875,-13.406251,-41.943752
1782299867335,0.236889,1.256232,8.029019,-0.005774,0.10561,-0.152855,2.26875,-13.406251,-41.943752
1782299867340,0.236889,1.256232,8.029019,-0.005774,0.10561,-0.152855,2.49375,-15.76875,-42.131252
1782299867343,0.244068,1.40698,7.897414,0.038209,0.081786,-0.138805,2.49375,-15.76875,-42.131252
1782299867349,0.244068,1.40698,7.897414,0.038209,0.081786,-0.138805,2.2125,-13.725,-40.125
1782299867352,0.256032,1.536192,7.830415,0.062032,0.062239,-0.124144,2.2125,-13.725,-40.125
1782299867367,0.277567,1.677369,7.780166,0.062643,0.061628,-0.104597,2.26875,-14.906251,-40.443752
1782299867370,0.289532,1.782653,7.746666,0.038819,0.07751,-0.082606,1.63125,-13.556251,-41.043751
1782299867377,0.294317,1.806581,7.801702,-0.004552,0.10561,-0.055117,1.63125,-13.556251,-41.043751
1782299867378,0.294317,1.806581,7.801702,-0.004552,0.10561,-0.055117,1.2,-13.70625,-41.643753
1782299867385,0.294317,1.806581,7.801702,-0.058308,0.139819,-0.027017,1.2,-13.70625,-41.643753
1782299867386,0.272782,1.792224,7.99552,-0.058308,0.139819,-0.027017,1.2,-13.70625,-41.643753
1782299867388,0.272782,1.792224,7.99552,-0.058308,0.139819,-0.027017,2.1375,-16.06875,-40.3125
1782299867394,0.246461,1.739582,8.311372,-0.098625,0.170973,-0.000139,2.1375,-16.06875,-40.3125
1782299867399,0.246461,1.739582,8.311372,-0.098625,0.170973,-0.000139,1.275,-14.606251,-38.475002
1782299867402,0.217747,1.672583,8.651153,-0.110842,0.18991,0.020631,1.275,-14.606251,-38.475002
1782299867409,0.217747,1.672583,8.651153,-0.110842,0.18991,0.020631,1.48125,-14.45625,-40.143753
1782299867411,0.217747,1.672583,8.651153,-0.091906,0.186244,0.03468,1.48125,-14.45625,-40.143753
1782299867412,0.229711,1.59362,8.871293,-0.091906,0.186244,0.03468,1.48125,-14.45625,-40.143753
1782299867419,0.229711,1.59362,8.871293,-0.091906,0.186244,0.03468,1.2375,-15.468751,-40.912502
1782299867421,0.258425,1.526621,8.993327,-0.054643,0.167918,0.043843,1.2375,-15.468751,-40.912502
1782299867430,0.258425,1.526621,8.993327,-0.014326,0.136764,0.053006,1.2375,-15.468751,-40.912502
1782299867431,0.327817,1.533799,9.084254,-0.014326,0.136764,0.053006,4.2375,-13.293751,-42.09375
1782299867437,0.327817,1.533799,9.084254,0.019883,0.096447,0.059726,4.2375,-13.293751,-42.09375
1782299867438,0.404387,1.581656,9.170396,0.019883,0.096447,0.059726,4.2375,-13.293751,-42.09375
1782299867439,0.404387,1.581656,9.170396,0.019883,0.096447,0.059726,2.08125,-14.306251,-39.975002
1782299867445,0.404387,1.581656,9.170396,0.047982,0.059795,0.065224,2.08125,-14.306251,-39.975002
1782299867446,0.485743,1.622334,9.163217,0.047982,0.059795,0.065224,2.08125,-14.306251,-39.975002
1782299867449,0.485743,1.622334,9.163217,0.047982,0.059795,0.065224,2.0625,-13.575001,-40.275002
1782299867454,0.562313,1.641476,9.141682,0.062032,0.012759,0.072554,2.0625,-13.575001,-40.275002
1782299867469,0.583849,1.636691,9.153646,0.061421,-0.029391,0.085993,1.55625,-15.168751,-41.662502
1782299867471,0.569492,1.691726,9.220645,0.052258,-0.052604,0.101265,1.55625,-15.168751,-41.662502
1782299867479,0.569492,1.691726,9.220645,0.052258,-0.052604,0.101265,0.61875,-14.2875,-41.8125
1782299867480,0.524028,1.741975,9.258931,0.047982,-0.063599,0.118369,0.61875,-14.2875,-41.8125
1782299867489,0.524028,1.741975,9.258931,0.059589,-0.062988,0.136695,0.61875,-14.2875,-41.8125
1782299867490,0.507278,1.768296,9.225431,0.059589,-0.062988,0.136695,2.53125,-15.01875,-43.931252
1782299867498,0.524028,1.782653,9.268502,0.084634,-0.058712,0.14708,2.475,-14.587501,-42.5625
1782299867506,0.552742,1.799403,9.383358,0.117621,-0.055047,0.151356,2.475,-14.587501,-42.5625
1782299867509,0.552742,1.799403,9.383358,0.117621,-0.055047,0.151356,1.96875,-13.406251,-41.943752
1782299867515,0.571885,1.825724,9.522141,0.149386,-0.059323,0.153188,1.96875,-13.406251,-41.943752
1782299867520,0.571885,1.825724,9.522141,0.149386,-0.059323,0.153188,1.725,-15.31875,-42.112503
1782299867523,0.571885,1.825724,9.522141,0.171988,-0.065432,0.153799,1.725,-15.31875,-42.112503
1782299867524,0.622134,1.885544,9.663317,0.171988,-0.065432,0.153799,1.725,-15.31875,-42.112503
1782299867529,0.622134,1.885544,9.663317,0.171988,-0.065432,0.153799,1.275,-14.868751,-42.712502
1782299867532,0.660419,1.964507,9.802101,0.181762,-0.07826,0.153799,1.275,-14.868751,-42.712502
1782299867540,0.660419,1.964507,9.802101,0.181762,-0.07826,0.153799,2.45625,-15.7875,-41.0625
1782299867541,0.698704,2.036292,9.912171,0.181151,-0.093532,0.157464,2.45625,-15.7875,-41.0625
1782299867550,0.736989,2.07697,10.017455,0.172599,-0.097197,0.164184,1.44375,-16.35,-41.831253
1782299867557,0.748953,2.038685,10.151454,0.155495,-0.097808,0.172125,1.44375,-16.35,-41.831253
1782299867559,0.748953,2.038685,10.151454,0.155495,-0.097808,0.172125,0.80625,-15.900001,-41.212502
1782299867577,0.727418,1.775474,10.658732,0.109069,-0.083147,0.199614,1.65,-15.900001,-43.800003
1782299867580,0.727418,1.775474,10.658732,0.109069,-0.083147,0.199614,1.6125,-16.950001,-41.681252
1782299867583,0.727418,1.775474,10.658732,0.091354,-0.057491,0.219162,1.6125,-16.950001,-41.681252
1782299867584,0.717847,1.615155,11.008084,0.091354,-0.057491,0.219162,1.6125,-16.950001,-41.681252
1782299867589,0.717847,1.615155,11.008084,0.091354,-0.057491,0.219162,1.59375,-16.200001,-41.662502
1782299867592,0.696311,1.4668,11.300008,0.090743,-0.031224,0.242374,1.59375,-16.200001,-41.662502
1782299867599,0.696311,1.4668,11.300008,0.090743,-0.031224,0.242374,1.74375,-15.31875,-42.581253
1782299867600,0.641276,1.380659,11.532112,0.110291,-0.014119,0.263144,1.74375,-15.31875,-42.581253
1782299867610,0.579063,1.387837,11.646967,0.156105,-0.012287,0.279637,1.575,-16.21875,-41.212502
1782299867622,0.48335,1.531407,11.623039,0.226966,-0.01473,0.285746,1.575,-16.21875,-41.212502
1782299867623,0.48335,1.531407,11.623039,0.226966,-0.01473,0.285746,0.7125,-17.53125,-41.381252
1782299867626,0.387637,1.715654,11.367007,0.308211,-0.030002,0.286357,0.7125,-17.53125,-41.381252
1782299867629,0.387637,1.715654,11.367007,0.308211,-0.030002,0.286357,1.35,-16.931252,-43.050003
1782299867634,0.387637,1.715654,11.367007,0.368076,-0.041608,0.283302,1.35,-16.931252,-43.050003
1782299867635,0.346959,1.832902,11.036798,0.368076,-0.041608,0.283302,1.35,-16.931252,-43.050003
1782299867640,0.346959,1.832902,11.036798,0.368076,-0.041608,0.283302,0.7125,-17.8125,-41.081253
1782299867643,0.212961,1.933401,10.902799,0.379682,-0.041608,0.283913,0.7125,-17.8125,-41.081253
1782299867649,0.212961,1.933401,10.902799,0.379682,-0.041608,0.283913,0.76875,-18.262501,-42.150002
1782299867652,0.045464,2.096113,10.97937,0.349139,-0.019006,0.291855,0.76875,-18.262501,-42.150002
1782299867660,0.045464,2.096113,10.97937,0.349139,-0.019006,0.291855,1.81875,-17.831251,-42.600002
1782299867661,-0.09332,2.364109,11.077475,0.289274,0.017646,0.304683,1.81875,-17.831251,-42.600002
1782299867678,-0.088534,2.486143,11.211474,0.112123,0.109275,0.326674,1.4625,-16.800001,-41.831253
1782299867679,-0.088534,2.486143,11.211474,0.112123,0.109275,0.326674,0.91875,-17.6625,-43.050003
1782299867686,-0.047856,2.222932,11.311972,0.008276,0.119049,0.331561,0.91875,-17.6625,-43.050003
1782299867689,-0.047856,2.222932,11.311972,0.008276,0.119049,0.331561,-0.15,-17.362501,-42.75
1782299867694,-0.047856,2.222932,11.311972,-0.101069,0.094615,0.333393,-0.15,-17.362501,-42.75
1782299867695,0.074178,1.835295,11.441185,-0.101069,0.094615,0.333393,-0.15,-17.362501,-42.75
1782299867699,0.074178,1.835295,11.441185,-0.101069,0.094615,0.333393,0.91875,-17.962502,-42.75
1782299867703,0.177069,1.387837,11.728323,-0.207359,0.032306,0.32423,0.91875,-17.962502,-42.75
1782299867709,0.177069,1.387837,11.728323,-0.207359,0.032306,0.32423,0.91875,-17.962502,-42.75
1782299867712,0.198604,0.928415,12.156639,-0.298378,-0.056269,0.299796,0.91875,-17.962502,-42.75
1782299867719,0.198604,0.928415,12.156639,-0.298378,-0.056269,0.299796,0.1875,-18.393751,-43.050003
1782299867720,0.184247,0.528814,12.558632,-0.351523,-0.160727,0.269253,0.1875,-18.393751,-43.050003
1782299867730,0.184247,0.528814,12.558632,-0.343582,-0.263352,0.23932,0.1875,-18.393751,-43.050003
1782299867731,0.181855,0.294317,12.750059,-0.343582,-0.263352,0.23932,1.51875,-17.8125,-42.900002
1782299867737,0.181855,0.294317,12.750059,-0.2715,-0.349484,0.211831,1.51875,-17.8125,-42.900002
1782299867738,0.198604,0.193819,12.510776,-0.2715,-0.349484,0.211831,1.51875,-17.8125,-42.900002
1782299867739,0.198604,0.193819,12.510776,-0.2715,-0.349484,0.211831,0.975,-18.69375,-43.518753
1782299867746,0.198604,0.193819,12.510776,-0.149938,-0.414236,0.192284,0.975,-18.69375,-43.518753
1782299867747,0.320638,0.177069,12.080068,-0.149938,-0.414236,0.192284,0.975,-18.69375,-43.518753
1782299867749,0.320638,0.177069,12.080068,-0.149938,-0.414236,0.192284,-0.13125,-17.643751,-43.050003
1782299867754,0.320638,0.177069,12.080068,-0.010661,-0.418512,0.181899,-0.13125,-17.643751,-43.050003
1782299867755,0.48335,0.287139,11.532112,-0.010661,-0.418512,0.181899,-0.13125,-17.643751,-43.050003
1782299867760,0.48335,0.287139,11.532112,-0.010661,-0.418512,0.181899,-0.15,-17.643751,-42.75
1782299867764,0.617348,0.459422,10.85255,0.117621,-0.36781,0.178234,-0.15,-17.643751,-42.75
1782299867779,0.667598,0.679562,10.168203,0.211694,-0.276791,0.18251,-0.1875,-19.25625,-44.4375
1782299867780,0.698704,0.897308,9.60589,0.257509,-0.184551,0.195949,-0.1875,-19.25625,-44.4375
1782299867790,0.701097,1.103091,9.278073,0.255066,-0.096586,0.213053,-0.65625,-19.856251,-43.21875
1782299867799,0.691526,1.268196,9.101004,0.216581,-0.011676,0.23199,-0.65625,-19.856251,-43.21875
1782299867800,0.691526,1.268196,9.101004,0.216581,-0.011676,0.23199,-0.09375,-18.375,-43.518753
1782299867807,0.653241,1.342373,8.947863,0.156716,0.071402,0.254592,-0.09375,-18.375,-43.518753
1782299867809,0.653241,1.342373,8.947863,0.156716,0.071402,0.254592,-0.84375,-19.40625,-42.768753
1782299867814,0.653241,1.342373,8.947863,0.079747,0.12638,0.274139,-0.84375,-19.40625,-42.768753
1782299867815,0.622134,1.335195,8.737295,0.079747,0.12638,0.274139,-0.84375,-19.40625,-42.768753
1782299867819,0.622134,1.335195,8.737295,0.079747,0.12638,0.274139,-1.78125,-18.50625,-42.900002
1782299867823,0.547956,1.196411,8.641582,-0.006995,0.144706,0.288189,-1.78125,-18.50625,-42.900002
1782299867829,0.547956,1.196411,8.641582,-0.006995,0.144706,0.288189,-1.36875,-19.81875,-44.737503
1782299867833,0.445065,0.997807,8.77558,-0.089462,0.137986,0.296741,-1.36875,-19.81875,-44.737503
1782299867839,0.445065,0.997807,8.77558,-0.089462,0.137986,0.296741,-1.81875,-19.96875,-44.587502
1782299867841,0.31346,0.808774,9.022041,-0.149327,0.12699,0.303461,-1.81875,-19.96875,-44.587502
1782299867850,0.246461,0.715454,9.208681,-0.174983,0.120882,0.307737,-1.89375,-19.087502,-43.518753
1782299867859,0.246461,0.715454,9.208681,-0.174372,0.113551,0.30957,-1.89375,-19.087502,-43.518753
1782299867860,0.138784,0.650848,9.235002,-0.174372,0.113551,0.30957,-0.95625,-19.5375,-43.987503
1782299867866,0.138784,0.650848,9.235002,-0.164599,0.10561,0.313846,-0.95625,-19.5375,-43.987503
1782299867867,0.062213,0.650848,9.21586,-0.164599,0.10561,0.313846,-0.95625,-19.5375,-43.987503
1782299867868,0.062213,0.650848,9.21586,-0.164599,0.10561,0.313846,0.69375,-18.675001,-44.268753
1782299867882,-0.184247,0.715454,9.239788,-0.154825,0.097669,0.319954,-1.40625,-19.837502,-43.6875
1782299867883,0.095713,0.681954,9.081861,-0.138331,0.09828,0.322398,-1.40625,-19.837502,-43.6875
1782299867889,0.095713,0.681954,9.081861,-0.138331,0.09828,0.322398,-0.80625,-19.106251,-44.287502
1782299867892,0.39003,0.471386,9.002899,-0.125503,0.075678,0.323009,-0.80625,-19.106251,-44.287502
1782299867899,0.39003,0.471386,9.002899,-0.125503,0.075678,0.323009,-0.9375,-20.137501,-43.6875
1782299867900,0.421137,0.442672,9.010077,-0.123671,0.075067,0.318733,-0.9375,-20.137501,-43.6875
1782299867910,0.401994,0.531207,8.995719,-0.118784,0.073234,0.297352,-1.51875,-20.71875,-43.837502
1782299867919,0.378066,0.605384,8.947863,-0.112675,0.064682,0.279026,-1.14375,-17.925001,-44.268753
1782299867926,0.342174,0.650848,8.859329,-0.10229,0.029863,0.266809,-1.14375,-17.925001,-44.268753
1782299867928,0.342174,0.650848,8.859329,-0.10229,0.029863,0.266809,-1.66875,-20.868752,-43.987503
1782299867935,0.349352,0.705883,8.744473,-0.086408,-0.029391,0.250316,-1.66875,-20.868752,-43.987503
1782299867939,0.349352,0.705883,8.744473,-0.086408,-0.029391,0.250316,-1.9125,-19.106251,-42.768753
1782299867943,0.349352,0.705883,8.744473,-0.063195,-0.081314,0.231379,-1.9125,-19.106251,-42.768753
1782299867944,0.349352,0.789631,8.574583,-0.063195,-0.081314,0.231379,-1.9125,-19.106251,-42.768753
1782299867949,0.349352,0.789631,8.574583,-0.063195,-0.081314,0.231379,-3.075,-19.368752,-43.837502
1782299867952,0.33021,0.973879,8.364015,-0.026543,-0.118577,0.214886,-3.075,-19.368752,-43.837502
1782299867959,0.33021,0.973879,8.364015,-0.026543,-0.118577,0.214886,-2.00625,-20.118752,-43.6875
1782299867961,0.325424,1.134198,8.134304,0.023548,-0.138125,0.198392,-2.00625,-20.118752,-43.6875
1782299867970,0.325424,1.134198,8.134304,0.071806,-0.142401,0.181899,-2.00625,-20.118752,-43.6875
1782299867971,0.327817,1.26341,7.887843,0.071806,-0.142401,0.181899,-2.625,-19.96875,-43.068752
1782299867981,0.354138,1.39023,7.684453,0.104793,-0.126518,0.167849,-1.40625,-19.5375,-43.668751
1782299867986,0.397209,1.524228,7.538491,0.112123,-0.098419,0.155021,-1.40625,-19.5375,-43.668751
1782299867989,0.397209,1.524228,7.538491,0.112123,-0.098419,0.155021,-1.06875,-19.96875,-44.887501
1782299867995,0.447458,1.61037,7.464314,0.099295,-0.069708,0.142193,-1.06875,-19.96875,-44.887501
1782299867999,0.447458,1.61037,7.464314,0.099295,-0.069708,0.142193,-2.34375,-17.606251,-44.568752
1782299868003,0.495314,1.603191,7.502598,0.060811,-0.042219,0.124478,-2.34375,-17.606251,-44.568752
1782299868009,0.495314,1.603191,7.502598,0.060811,-0.042219,0.124478,-2.41875,-20.85,-43.987503
1782299868012,0.538385,1.567299,7.66531,0.004,-0.026337,0.103097,-2.41875,-20.85,-43.987503
1782299868018,0.538385,1.567299,7.66531,0.004,-0.026337,0.103097,-2.53125,-22.481251,-43.556252
1782299868020,0.538385,1.567299,7.66531,-0.058919,-0.022671,0.079274,-2.53125,-22.481251,-43.556252
1782299868021,0.557528,1.57687,7.878272,-0.058919,-0.022671,0.079274,-2.53125,-22.481251,-43.556252
1782299868029,0.538385,1.591227,8.170196,-0.10901,-0.036721,0.054839,-2.25,-21.0,-44.306252
1782299868039,0.5001,1.567299,8.431014,-0.135888,-0.051993,0.029183,-2.30625,-20.71875,-43.087502
1782299868046,0.5001,1.567299,8.431014,-0.135888,-0.067875,0.004748,-2.30625,-20.71875,-43.087502
1782299868047,0.449851,1.531407,8.584155,-0.135888,-0.067875,0.004748,-2.30625,-20.71875,-43.087502
1782299868048,0.449851,1.531407,8.584155,-0.135888,-0.067875,0.004748,-2.025,-20.118752,-43.237503
1782299868055,0.449851,1.531407,8.584155,-0.115729,-0.08559,-0.02213,-2.025,-20.118752,-43.237503
1782299868056,0.404387,1.490728,8.658331,-0.115729,-0.08559,-0.02213,-2.025,-20.118752,-43.237503
1782299868060,0.404387,1.490728,8.658331,-0.115729,-0.08559,-0.02213,-3.1875,-21.150002,-43.237503
1782299868064,0.404387,1.490728,8.658331,-0.080299,-0.095975,-0.048397,-3.1875,-21.150002,-43.237503
1782299868065,0.401994,1.481157,8.691831,-0.080299,-0.095975,-0.048397,-3.1875,-21.150002,-43.237503
1782299868069,0.401994,1.481157,8.691831,-0.080299,-0.095975,-0.048397,-2.4,-20.1,-45.206253
1782299868073,0.428315,1.452443,8.74208,-0.040593,-0.087423,-0.075275,-2.4,-20.1,-45.206253
1782299868088,0.428315,1.452443,8.74208,-0.040593,-0.087423,-0.075275,-2.34375,-19.6875,-43.068752
1782299868089,0.476172,1.411765,8.804294,-0.006995,-0.058102,-0.098488,-2.34375,-19.6875,-43.068752
1782299868090,0.476172,1.411765,8.804294,0.019272,-0.023893,-0.117425,-2.25,-22.03125,-43.556252
1782299868091,0.51685,1.395016,8.916757,0.019272,-0.023893,-0.117425,-2.25,-22.03125,-43.556252
1782299868100,0.571885,1.45005,9.062719,0.047372,0.007261,-0.132696,-2.4,-20.85,-44.756252
1782299868108,0.581456,1.586441,9.21586,0.083413,0.031085,-0.141249,-2.4,-20.85,-44.756252
1782299868109,0.581456,1.586441,9.21586,0.083413,0.031085,-0.141249,-2.56875,-21.450001,-43.537502
1782299868115,0.581456,1.586441,9.21586,0.127395,0.046356,-0.144303,-2.56875,-21.450001,-43.537502
1782299868116,0.555135,1.765903,9.313965,0.127395,0.046356,-0.144303,-2.56875,-21.450001,-43.537502
1782299868120,0.555135,1.765903,9.313965,0.127395,0.046356,-0.144303,-3.45,-22.612501,-43.256252
1782299868125,0.543171,1.940579,9.302002,0.171377,0.050632,-0.143081,-3.45,-22.612501,-43.256252
1782299868130,0.543171,1.940579,9.302002,0.171377,0.050632,-0.143081,-2.4,-21.581251,-43.706253
1782299868133,0.495314,2.043471,9.232609,0.201309,0.032306,-0.136362,-2.4,-21.581251,-43.706253
1782299868139,0.495314,2.043471,9.232609,0.201309,0.032306,-0.136362,-3.39375,-21.5625,-45.825001
1782299868141,0.430708,2.115255,9.237395,0.204364,0.017035,-0.12781,-3.39375,-21.5625,-45.825001
1782299868150,0.430708,2.115255,9.237395,0.181762,-6.9e-05,-0.119257,-3.39375,-21.5625,-45.825001
1782299868151,0.382852,2.146362,9.268502,0.181762,-6.9e-05,-0.119257,-3.0,-21.431252,-44.306252
1782299868160,0.318245,2.141576,9.404892,0.149997,-0.020839,-0.111927,-1.78125,-22.481251,-43.556252
1782299868167,0.287139,2.11047,9.569997,0.11701,-0.031834,-0.101542,-1.78125,-22.481251,-43.556252
1782299868169,0.287139,2.11047,9.569997,0.11701,-0.031834,-0.101542,-3.20625,-22.331251,-41.887501
1782299868175,0.287139,2.11047,9.569997,0.096241,-0.031834,-0.091769,-3.20625,-22.331251,-41.887501
1782299868176,0.323031,2.067399,9.778173,0.096241,-0.031834,-0.091769,-3.20625,-22.331251,-41.887501
1782299868180,0.323031,2.067399,9.778173,0.096241,-0.031834,-0.091769,-3.20625,-23.493752,-44.925003
1782299868195,0.361316,2.079363,10.13231,0.090743,-0.002513,-0.080162,-3.3,-21.431252,-44.306252
1782299868199,0.361316,2.079363,10.13231,0.090743,-0.002513,-0.080162,-3.3,-21.431252,-44.306252
1782299868201,0.40678,2.053042,10.239988,0.101128,0.012759,-0.079551,-3.3,-21.431252,-44.306252
1782299868210,0.445065,1.995614,10.419449,0.106015,0.029863,-0.083216,-4.06875,-22.012501,-43.556252
1782299868219,0.445065,1.995614,10.419449,0.09563,0.051854,-0.092379,-4.06875,-22.012501,-43.556252
1782299868220,0.401994,1.942972,10.634803,0.09563,0.051854,-0.092379,-4.03125,-22.743752,-43.556252
1782299868228,0.57667,1.76351,10.823836,0.066919,0.074456,-0.100321,-4.03125,-22.743752,-43.556252
1782299868229,0.57667,1.76351,10.823836,0.066919,0.074456,-0.100321,-2.53125,-21.731251,-44.606251
1782299868235,0.57667,1.76351,10.823836,0.021104,0.089117,-0.100321,-2.53125,-21.731251,-44.606251
1782299868236,0.631705,1.502693,11.185153,0.021104,0.089117,-0.100321,-2.53125,-21.731251,-44.606251
1782299868240,0.631705,1.502693,11.185153,0.021104,0.089117,-0.100321,-2.9625,-22.012501,-44.606251
1782299868244,0.605384,1.339981,11.675682,-0.014937,0.117217,-0.099099,-2.9625,-22.012501,-44.606251
1782299868250,0.605384,1.339981,11.675682,-0.014937,0.117217,-0.099099,-2.625,-24.825001,-42.975002
1782299868253,0.452243,1.323231,12.123139,-0.006385,0.143484,-0.09971,-2.625,-24.825001,-42.975002
1782299868259,0.452243,1.323231,12.123139,-0.006385,0.143484,-0.09971,-2.9625,-23.19375,-43.875
1782299868261,0.342174,1.485943,12.235602,0.064476,0.155701,-0.092379,-2.9625,-23.19375,-43.875
1782299868270,0.342174,1.485943,12.235602,0.182984,0.146538,-0.075886,-2.53125,-23.212502,-43.106251
1782299868271,0.301496,1.715654,11.993927,0.182984,0.146538,-0.075886,-2.53125,-23.212502,-43.106251
1782299868279,0.301496,1.715654,11.993927,0.310043,0.131267,-0.06489,-2.53125,-23.212502,-43.106251
1782299868281,0.301496,1.715654,11.993927,0.310043,0.131267,-0.06489,-4.7625,-22.743752,-44.325001
1782299868294,0.272782,2.002793,11.108582,0.404727,0.108054,-0.06489,-3.46875,-24.50625,-45.693752
1782299868295,0.272782,2.002793,11.108582,0.437103,0.055519,-0.070999,-3.46875,-24.50625,-45.693752
1782299868296,0.239282,2.158326,10.761623,0.437103,0.055519,-0.070999,-3.46875,-24.50625,-45.693752
1782299868300,0.239282,2.158326,10.761623,0.437103,0.055519,-0.070999,-1.7625,-24.562502,-42.356251
1782299868304,0.294317,2.395216,10.634803,0.401062,-0.009232,-0.077108,-1.7625,-24.562502,-42.356251
1782299868310,0.294317,2.395216,10.634803,0.401062,-0.009232,-0.077108,-1.8,-25.125002,-45.243752
1782299868313,0.303888,2.620141,10.68266,0.319206,-0.051382,-0.091158,-1.8,-25.125002,-45.243752
1782299868318,0.303888,2.620141,10.68266,0.319206,-0.051382,-0.091158,-3.975,-23.925001,-44.625
1782299868321,0.581456,2.617748,10.510376,0.213527,-0.066654,-0.115592,-3.975,-23.925001,-44.625
1782299868329,0.581456,2.617748,10.510376,0.078526,-0.09231,-0.143081,-2.175,-24.993752,-42.825001
1782299868330,0.916451,2.301895,10.29263,0.078526,-0.09231,-0.143081,-2.175,-24.993752,-42.825001
1782299868340,0.916451,2.301895,10.29263,-0.091295,-0.128962,-0.180955,-2.175,-24.993752,-42.825001
1782299868341,1.081556,1.85683,10.29263,-0.091295,-0.128962,-0.180955,-2.64375,-24.393751,-42.975002
1782299868348,1.081556,1.85683,10.29263,-0.268446,-0.171722,-0.223104,-2.64375,-24.393751,-42.975002
1782299868349,1.055235,1.342373,10.574983,-0.268446,-0.171722,-0.223104,-2.64375,-24.393751,-42.975002
1782299868350,1.055235,1.342373,10.574983,-0.268446,-0.171722,-0.223104,-1.95,-23.681252,-41.90625
1782299868356,1.033699,0.859023,11.161224,-0.413221,-0.213261,-0.246928,-1.95,-23.681252,-41.90625
1782299868359,1.033699,0.859023,11.161224,-0.413221,-0.213261,-0.246928,-3.24375,-24.975,-42.825001
1782299868365,1.134198,0.454636,11.773787,-0.480416,-0.223035,-0.254869,-3.24375,-24.975,-42.825001
1782299868370,1.134198,0.454636,11.773787,-0.480416,-0.223035,-0.254869,-1.2375,-25.44375,-43.275002
1782299868373,1.20359,0.165105,11.993927,-0.452927,-0.192492,-0.259756,-1.2375,-25.44375,-43.275002
1782299868379,1.20359,0.165105,11.993927,-0.452927,-0.192492,-0.259756,-3.35625,-24.825001,-43.725002
1782299868382,1.239482,-0.043071,11.838393,-0.347247,-0.154007,-0.250593,-3.35625,-24.825001,-43.725002
1782299868397,1.177269,0.160319,11.347865,-0.20064,-0.086812,-0.222494,-3.075,-25.125002,-43.275002
1782299868399,1.201197,0.37328,10.833408,-0.027765,-0.038554,-0.193783,-3.76875,-26.137501,-43.743752
1782299868407,1.270589,0.519243,10.354843,0.112734,0.029252,-0.168127,-3.76875,-26.137501,-43.743752
1782299868409,1.270589,0.519243,10.354843,0.112734,0.029252,-0.168127,-3.525,-24.525002,-43.575001
1782299868415,1.172483,0.746561,10.015062,0.204364,0.097058,-0.143692,-3.525,-24.525002,-43.575001
1782299868419,1.172483,0.746561,10.015062,0.204364,0.097058,-0.143692,-4.0125,-23.925001,-43.106251
1782299868424,1.172483,0.746561,10.015062,0.228798,0.128212,-0.133918,-4.0125,-23.925001,-43.106251
1782299868425,1.07677,1.014557,9.63939,0.228798,0.128212,-0.133918,-4.0125,-23.925001,-43.106251
1782299868429,1.07677,1.014557,9.63939,0.228798,0.128212,-0.133918,-2.56875,-26.156252,-43.743752
1782299868432,1.07677,1.014557,9.63939,0.156716,0.111719,-0.134529,-2.56875,-26.156252,-43.743752
1782299868433,0.961915,1.138984,9.318751,0.156716,0.111719,-0.134529,-2.56875,-26.156252,-43.743752
1782299868439,0.961915,1.138984,9.318751,0.156716,0.111719,-0.134529,-4.14375,-25.406252,-42.225002
1782299868441,0.92363,1.100698,9.330715,0.006444,0.050021,-0.136362,-4.14375,-25.406252,-42.225002
1782299868449,0.92363,1.100698,9.330715,0.006444,0.050021,-0.136362,-3.075,-25.425001,-42.675003
1782299868450,0.9667,0.911665,9.517355,-0.164599,-0.00068,-0.143692,-3.075,-25.425001,-42.675003
1782299868460,0.9667,0.911665,9.517355,-0.316704,-0.019617,-0.162018,-3.075,-25.425001,-42.675003
1782299868461,0.947558,0.619741,9.804493,-0.316704,-0.019617,-0.162018,-5.90625,-25.368752,-43.743752
1782299868467,0.947558,0.619741,9.804493,-0.418107,-0.006178,-0.185842,-5.90625,-25.368752,-43.743752
1782299868468,0.940379,0.284746,10.170596,-0.418107,-0.006178,-0.185842,-5.90625,-25.368752,-43.743752
1782299868469,0.940379,0.284746,10.170596,-0.418107,-0.006178,-0.185842,-3.4875,-25.706251,-43.59375
1782299868476,0.940379,0.284746,10.170596,-0.451094,0.012759,-0.21272,-3.4875,-25.706251,-43.59375
1782299868477,0.904487,-0.031107,10.460127,-0.451094,0.012759,-0.21272,-3.4875,-25.706251,-43.59375
1782299868479,0.904487,-0.031107,10.460127,-0.451094,0.012759,-0.21272,-3.39375,-24.375002,-42.975002
1782299868484,0.904487,-0.031107,10.460127,-0.422994,0.007872,-0.235933,-3.39375,-24.375002,-42.975002
1782299868485,0.866202,-0.248854,10.476877,-0.422994,0.007872,-0.235933,-3.39375,-24.375002,-42.975002
1782299868501,0.854238,-0.31346,10.342879,-0.23607,-0.038554,-0.271363,-4.275,-24.956251,-43.575001
1782299868508,0.854238,-0.31346,10.342879,-0.23607,-0.038554,-0.271363,-2.325,-24.843752,-43.275002
1782299868509,0.90688,-0.172283,10.005491,-0.101679,-0.019006,-0.284191,-2.325,-24.843752,-43.275002
1782299868520,0.89013,0.112463,9.435999,0.01805,0.021311,-0.287856,-3.3375,-25.106251,-44.493752
1782299868527,0.794417,0.418744,8.844972,0.098073,0.062239,-0.286634,-3.3375,-25.106251,-44.493752
1782299868528,0.794417,0.418744,8.844972,0.098073,0.062239,-0.286634,-2.325,-24.843752,-42.975002
1782299868535,0.48335,0.684347,8.364015,0.117621,0.102556,-0.282358,-2.325,-24.843752,-42.975002
1782299868538,0.48335,0.684347,8.364015,0.117621,0.102556,-0.282358,-3.20625,-24.975,-43.875
1782299868544,0.725025,0.732204,7.801702,0.070584,0.104999,-0.270752,-3.20625,-24.975,-43.875
1782299868549,0.725025,0.732204,7.801702,0.070584,0.104999,-0.270752,-2.45625,-24.975,-43.875
1782299868552,0.689133,0.753739,7.732309,-0.046702,0.083619,-0.25548,-2.45625,-24.975,-43.875
1782299868558,0.689133,0.753739,7.732309,-0.046702,0.083619,-0.25548,-3.20625,-25.706251,-43.125
1782299868561,0.579063,0.851845,7.820844,-0.18659,0.098891,-0.249372,-3.20625,-25.706251,-43.125
1782299868568,0.579063,0.851845,7.820844,-0.18659,0.098891,-0.249372,-2.11875,-25.725,-43.893753
1782299868569,0.512064,0.892523,7.985949,-0.18659,0.098891,-0.249372,-2.11875,-25.725,-43.893753
1782299868570,0.512064,0.892523,7.985949,-0.31426,0.128212,-0.247539,-2.11875,-25.725,-43.893753
1782299868579,0.480957,0.887737,8.160625,-0.404058,0.140429,-0.242041,-2.34375,-24.393751,-43.275002
1782299868587,0.457029,0.863809,8.349658,-0.443153,0.125158,-0.240209,-2.34375,-24.393751,-43.275002
1782299868588,0.457029,0.863809,8.349658,-0.443153,0.125158,-0.240209,-1.66875,-25.275002,-44.34375
1782299868595,0.416351,0.753739,8.500406,-0.433379,0.092782,-0.239598,-1.66875,-25.275002,-44.34375
1782299868599,0.416351,0.753739,8.500406,-0.433379,0.092782,-0.239598,-2.41875,-25.275002,-44.34375
1782299868604,0.459422,0.775275,8.395121,-0.373514,0.048189,-0.231657,-2.41875,-25.275002,-44.34375
1782299868609,0.459422,0.775275,8.395121,-0.373514,0.048189,-0.231657,-1.65,-25.725,-44.34375
1782299868612,0.552742,0.856631,8.395121,-0.272111,0.035972,-0.221272,-1.65,-25.725,-44.34375
1782299868618,0.552742,0.856631,8.395121,-0.272111,0.035972,-0.221272,-1.8375,-25.125002,-43.725002
1782299868621,0.571885,0.949951,8.507584,-0.159712,0.096447,-0.215774,-1.8375,-25.125002,-43.725002
1782299868628,0.571885,0.949951,8.507584,-0.159712,0.096447,-0.215774,0.35625,-24.581251,-42.056252
1782299868629,0.471386,0.952343,8.514762,-0.050367,0.173416,-0.206,0.35625,-24.581251,-42.056252
1782299868639,0.356531,1.048056,8.297016,0.021104,0.201516,-0.185231,-1.89375,-24.112501,-42.956253
1782299868647,0.224925,1.134198,8.213267,0.040041,0.177692,-0.163851,-1.89375,-24.112501,-42.956253
1782299868648,0.224925,1.134198,8.213267,0.040041,0.177692,-0.163851,-2.15625,-25.725,-43.125
1782299868655,0.339781,1.26341,8.323337,0.033932,0.12699,-0.143081,-2.15625,-25.725,-43.125
1782299868659,0.339781,1.26341,8.323337,0.033932,0.12699,-0.143081,-2.15625,-25.725,-43.125
1782299868665,0.229711,1.272982,8.600904,0.0321,0.117827,-0.12109,-2.15625,-25.725,-43.125
1782299868669,0.229711,1.272982,8.600904,0.0321,0.117827,-0.12109,-2.625,-25.425001,-42.675003
1782299868673,0.306281,1.239482,8.529119,0.025991,0.166086,-0.108262,-2.625,-25.425001,-42.675003
1782299868679,0.306281,1.239482,8.529119,0.025991,0.166086,-0.108262,-2.2125,-25.293751,-41.306252
1782299868682,0.409173,1.251446,8.340086,0.011331,0.214344,-0.103375,-2.2125,-25.293751,-41.306252
1782299868689,0.409173,1.251446,8.340086,0.011331,0.214344,-0.103375,-1.55625,-25.44375,-43.275002
1782299868702,0.468993,1.268196,8.593726,-0.077245,0.313915,-0.097877,-0.75,-26.175001,-43.743752
1782299868707,0.454636,1.232304,8.911971,-0.140164,0.279707,-0.080162,-0.75,-26.175001,-43.743752
1782299868708,0.454636,1.232304,8.911971,-0.140164,0.279707,-0.080162,-0.05625,-25.9125,-42.225002
1782299868716,0.440279,1.172483,9.328322,-0.18659,0.192964,-0.059393,-0.05625,-25.9125,-42.225002
1782299868718,0.440279,1.172483,9.328322,-0.18659,0.192964,-0.059393,0.39375,-26.062502,-41.775002
1782299868724,0.457029,1.105484,9.689639,-0.176816,0.119049,-0.045343,0.39375,-26.062502,-41.775002
1782299868729,0.457029,1.105484,9.689639,-0.176816,0.119049,-0.045343,-1.36875,-26.475,-43.143753
1782299868733,0.478565,1.007378,9.675281,-0.090684,0.11233,-0.034347,-1.36875,-26.475,-43.143753
1782299868739,0.478565,1.007378,9.675281,-0.090684,0.11233,-0.034347,-1.74375,-25.293751,-42.056252
1782299868741,0.478565,1.007378,9.675281,0.040041,0.180136,-0.032515,-1.74375,-25.293751,-42.056252
1782299868742,0.514457,0.969093,9.464713,0.040041,0.180136,-0.032515,-1.74375,-25.293751,-42.056252
1782299868749,0.514457,0.969093,9.464713,0.040041,0.180136,-0.032515,-0.95625,-26.043751,-42.375
1782299868750,0.4666,1.067199,9.24218,0.181151,0.27482,-0.037402,-0.95625,-26.043751,-42.375
1782299868760,0.349352,1.26341,9.139289,0.297215,0.327965,-0.038623,-0.43125,-27.356251,-43.293751
1782299868767,0.349352,1.26341,9.139289,0.348528,0.340793,-0.026406,-0.43125,-27.356251,-43.293751
1782299868768,0.29671,1.56012,9.084254,0.348528,0.340793,-0.026406,-1.9125,-24.112501,-42.65625
1782299868777,0.20339,1.713261,9.151253,0.32165,0.314526,0.003526,-1.9125,-24.112501,-42.65625
1782299868779,0.20339,1.713261,9.151253,0.32165,0.314526,0.003526,-1.21875,-26.625002,-42.993752
1782299868785,0.20339,1.713261,9.151253,0.253844,0.255883,0.045676,-1.21875,-26.625002,-42.993752
1782299868786,0.165105,1.744368,9.304394,0.253844,0.255883,0.045676,-1.21875,-26.625002,-42.993752
1782299868790,0.165105,1.744368,9.304394,0.253844,0.255883,0.045676,-0.80625,-25.893751,-42.225002
1782299868793,0.162712,1.722832,9.450356,0.200088,0.194186,0.084771,-0.80625,-25.893751,-42.225002
1782299868812,0.162712,1.722832,9.450356,0.200088,0.194186,0.084771,-1.2375,-26.925001,-41.925003
1782299868813,0.440279,1.505085,9.866707,0.212305,0.09828,0.107373,0.46875,-27.525002,-42.84375
1782299868820,0.411565,1.399801,9.914564,0.242848,0.095836,0.093323,0.1125,-26.493752,-42.075001
1782299868827,0.411565,1.399801,9.914564,0.256898,0.074456,0.078052,0.1125,-26.493752,-42.075001
1782299868828,0.366102,1.430908,9.876278,0.256898,0.074456,0.078052,0.4125,-27.093752,-41.775002
1782299868836,0.31346,1.588834,9.893029,0.235518,0.007261,0.079274,0.4125,-27.093752,-41.775002
1782299868840,0.31346,1.588834,9.893029,0.235518,0.007261,0.079274,0.39375,-26.793751,-41.325001
1782299868845,0.299103,1.607977,10.108383,0.195812,-0.069708,0.089047,0.39375,-26.793751,-41.325001
1782299868849,0.299103,1.607977,10.108383,0.195812,-0.069708,0.089047,-1.51875,-27.956251,-41.475002
1782299868853,0.33021,1.435694,10.417057,0.160382,-0.122853,0.096989,-1.51875,-27.956251,-41.475002
1782299868859,0.33021,1.435694,10.417057,0.160382,-0.122853,0.096989,-1.85625,-27.656252,-40.875
1782299868862,0.363709,1.213161,10.708981,0.139001,-0.137514,0.101876,-1.85625,-27.656252,-40.875
1782299868869,0.363709,1.213161,10.708981,0.139001,-0.137514,0.101876,-1.65,-29.2875,-41.34375
1782299868871,0.339781,1.095913,11.012869,0.134114,-0.124686,0.109206,-1.65,-29.2875,-41.34375
1782299868880,0.311067,1.033699,11.280865,0.146942,-0.094753,0.124478,-1.65,-29.2875,-41.34375
1782299868882,0.311067,1.033699,11.280865,0.146942,-0.094753,0.124478,-0.31875,-28.856251,-40.575001
1782299868888,0.260818,0.988236,11.510577,0.184816,-0.065432,0.145858,-0.31875,-28.856251,-40.575001
1782299868891,0.260818,0.988236,11.510577,0.184816,-0.065432,0.145858,0.3,-28.706251,-41.493752
1782299868896,0.205783,1.033699,11.737895,0.258731,-0.019617,0.167238,0.3,-28.706251,-41.493752
1782299868907,0.148355,1.189233,11.922142,0.372352,0.048189,0.186175,-1.55625,-28.406252,-40.125
1782299868909,0.148355,1.189233,11.922142,0.372352,0.048189,0.186175,-1.40625,-27.525002,-41.025002
1782299868913,0.086142,1.275374,11.843179,0.501855,0.125158,0.19717,-1.40625,-27.525002,-41.025002
1782299868919,0.086142,1.275374,11.843179,0.501855,0.125158,0.19717,-2.475,-29.2875,-38.775002
1782299868922,0.086142,1.275374,11.843179,0.605702,0.163031,0.193505,-2.475,-29.2875,-38.775002
1782299868923,0.074178,1.335195,11.455541,0.605702,0.163031,0.193505,-2.475,-29.2875,-38.775002
1782299868929,0.074178,1.335195,11.455541,0.605702,0.163031,0.193505,-1.21875,-30.187502,-39.693752
1782299868932,0.035892,1.507478,11.185153,0.664345,0.16181,0.183121,-1.21875,-30.187502,-39.693752
1782299868940,0.124427,1.799403,10.933906,0.679617,0.172805,0.166016,-1.8375,-28.687502,-40.425003
1782299868949,0.198604,1.974079,10.771194,0.664956,0.179525,0.153799,-1.8375,-28.687502,-40.425003
1782299868950,0.198604,1.974079,10.771194,0.664956,0.179525,0.153799,-1.21875,-29.437502,-40.125
1782299868959,0.217747,2.002793,10.491234,0.602037,0.199683,0.129364,-1.21875,-29.437502,-40.125
1782299868960,0.217747,2.002793,10.491234,0.602037,0.199683,0.129364,-2.26875,-30.468752,-39.393753
1782299868966,0.248854,1.832902,10.354843,0.481086,0.211901,0.100654,-2.26875,-30.468752,-39.393753
1782299868970,0.248854,1.832902,10.354843,0.481086,0.211901,0.100654,-2.4375,-30.768751,-38.775002
1782299868974,0.265603,1.493121,10.491234,0.305767,0.194796,0.068278,-2.4375,-30.768751,-38.775002
1782299868979,0.265603,1.493121,10.491234,0.305767,0.194796,0.068278,-0.31875,-30.337502,-39.225002
1782299868984,0.258425,1.048056,10.809479,0.095019,0.141651,0.032848,-0.31875,-30.337502,-39.225002
1782299868993,0.275175,0.62692,11.273687,-0.099847,0.059184,-0.001361,-1.5,-31.668751,-38.643753
1782299869010,0.181855,0.026321,12.14946,-0.218966,-0.107582,-0.049008,-1.36875,-30.337502,-39.543751
1782299869016,0.083749,-0.052642,11.943677,-0.105956,-0.189438,-0.054506,-1.36875,-30.337502,-39.543751
1782299869018,0.083749,-0.052642,11.943677,-0.105956,-0.189438,-0.054506,-0.7875,-31.668751,-37.575001
1782299869025,-0.066999,0.131605,11.453148,0.06753,-0.184551,-0.061836,-0.7875,-31.668751,-37.575001
1782299869030,-0.066999,0.131605,11.453148,0.06753,-0.184551,-0.061836,-2.85,-32.831253,-38.043751
1782299869033,-0.066999,0.131605,11.453148,0.271559,-0.186994,-0.046565,-2.85,-32.831253,-38.043751
1782299869034,0.114855,0.449851,10.295023,0.271559,-0.186994,-0.046565,-2.85,-32.831253,-38.043751
1782299869041,0.114855,0.449851,10.295023,0.271559,-0.186994,-0.046565,-2.25,-32.25,-38.34375
1782299869042,0.246461,0.770489,9.768602,0.429162,-0.160727,-0.003193,-2.25,-32.25,-38.34375
1782299869050,0.246461,0.770489,9.768602,0.429162,-0.160727,-0.003193,-1.59375,-33.581253,-38.8125
1782299869051,0.117248,1.026521,9.084254,0.478031,-0.05688,-0.001361,-1.59375,-33.581253,-38.8125
1782299869059,0.117248,1.026521,9.084254,0.41328,0.001152,-0.006247,-1.59375,-33.581253,-38.8125
1782299869060,0.100499,1.246661,8.58894,0.41328,0.001152,-0.006247,-1.425,-31.387501,-36.956253
1782299869069,0.251246,1.526621,8.483655,0.246513,0.037804,-0.004415,-0.9375,-31.81875,-37.425003
1782299869077,0.418744,1.548156,8.677475,0.032711,0.03475,-0.032515,-0.9375,-31.81875,-37.425003
1782299869079,0.418744,1.548156,8.677475,0.032711,0.03475,-0.032515,-1.36875,-32.118752,-37.725002
1782299869085,0.404387,1.261018,9.01247,-0.187811,-0.004345,-0.077719,-1.36875,-32.118752,-37.725002
1782299869091,0.404387,1.261018,9.01247,-0.187811,-0.004345,-0.077719,-1.575,-30.937502,-37.106251
1782299869093,0.294317,0.957129,9.483856,-0.37779,-0.071541,-0.12781,-1.575,-30.937502,-37.106251
1782299869099,0.294317,0.957129,9.483856,-0.37779,-0.071541,-0.12781,-2.38125,-32.831253,-38.493752
1782299869102,0.198604,0.713061,10.038991,-0.498131,-0.13446,-0.179733,-2.38125,-32.831253,-38.493752
1782299869118,0.155533,0.445065,10.452949,-0.530507,-0.174166,-0.225548,-2.2875,-31.218752,-38.325001
1782299869121,0.141177,0.294317,10.658732,-0.482859,-0.201655,-0.263422,-2.45625,-31.368752,-37.725002
1782299869129,0.102891,0.165105,10.601304,-0.396727,-0.223646,-0.298241,-2.25,-32.981251,-37.893753
1782299869137,-0.0335,0.052642,10.395521,-0.310595,-0.23342,-0.326951,-2.25,-32.981251,-37.893753
1782299869139,-0.0335,0.052642,10.395521,-0.310595,-0.23342,-0.326951,-2.25,-32.981251,-37.893753
1782299869145,-0.141177,0.081356,10.175381,-0.253174,-0.216316,-0.351997,-2.25,-32.981251,-37.893753
1782299869149,-0.141177,0.081356,10.175381,-0.253174,-0.216316,-0.351997,-2.23125,-33.431252,-37.893753
1782299869153,-0.141177,0.081356,10.175381,-0.227518,-0.193714,-0.370934,-2.23125,-33.431252,-37.893753
1782299869154,0.038285,0.153141,9.68246,-0.227518,-0.193714,-0.370934,-2.23125,-33.431252,-37.893753
1782299869159,0.038285,0.153141,9.68246,-0.227518,-0.193714,-0.370934,-2.625,-30.468752,-37.875
1782299869162,0.428315,0.251246,9.622639,-0.224463,-0.186994,-0.361771,-2.625,-30.468752,-37.875
1782299869168,0.428315,0.251246,9.622639,-0.224463,-0.186994,-0.361771,-1.59375,-29.906252,-37.856251
1782299869170,0.428315,0.251246,9.622639,-0.231183,-0.141179,-0.362382,-1.59375,-29.906252,-37.856251
1782299869171,0.562313,0.334995,9.75903,-0.231183,-0.141179,-0.362382,-1.59375,-29.906252,-37.856251
1782299869180,0.531207,0.411565,9.766209,-0.218966,-0.074595,-0.370934,-1.9125,-30.187502,-37.106251
1782299869190,0.547956,0.445065,9.622639,-0.185368,-0.001902,-0.380708,-2.8875,-31.050001,-38.475002
1782299869197,0.492921,0.502493,9.447963,-0.143829,0.054908,-0.397812,-2.8875,-31.050001,-38.475002
1782299869199,0.492921,0.502493,9.447963,-0.143829,0.054908,-0.397812,-1.40625,-30.0375,-38.775002
1782299869205,0.421137,0.602991,9.203895,-0.085797,0.060406,-0.41064,-1.40625,-30.0375,-38.775002
1782299869212,0.421137,0.602991,9.203895,-0.085797,0.060406,-0.41064,-0.80625,-30.937502,-37.575001
1782299869214,0.363709,0.693919,9.050755,-0.020434,0.041469,-0.42469,-0.80625,-30.937502,-37.575001
1782299869219,0.363709,0.693919,9.050755,-0.020434,0.041469,-0.42469,-1.875,-30.937502,-37.106251
1782299869222,0.236889,0.70349,9.079468,0.073028,0.042691,-0.449735,-1.875,-30.937502,-37.106251
1782299869228,0.236889,0.70349,9.079468,0.073028,0.042691,-0.449735,-0.80625,-29.906252,-38.325001
1782299869232,0.0335,0.646062,9.311573,0.258731,0.164864,-0.494328,-0.80625,-29.906252,-38.325001
1782299869240,-0.074178,0.751346,8.864114,0.333256,0.315748,-0.549306,-0.43125,-31.968752,-38.943752
1782299869249,0.057428,1.138984,7.954842,0.305156,0.262602,-0.559691,-0.975,-31.087502,-36.956253
1782299869257,0.375673,1.342373,7.69881,0.157938,-0.020839,-0.565189,-0.975,-31.087502,-36.956253
1782299869259,0.375673,1.342373,7.69881,0.157938,-0.020839,-0.565189,1.6125,-31.856251,-36.975002
1782299869266,0.600598,1.227518,8.191731,-0.006385,-0.213261,-0.582293,1.6125,-31.856251,-36.975002
1782299869270,0.600598,1.227518,8.191731,-0.006385,-0.213261,-0.582293,0.35625,-30.375002,-36.956253
1782299869274,0.677169,0.997807,8.816258,-0.074191,-0.306113,-0.614058,0.35625,-30.375002,-36.956253
1782299869279,0.677169,0.997807,8.816258,-0.074191,-0.306113,-0.614058,-0.975,-30.056252,-37.706253
1782299869283,0.72024,0.957129,8.780365,-0.099236,-0.361701,-0.645823,-0.975,-30.056252,-37.706253
1782299869290,0.72024,0.957129,8.780365,-0.099236,-0.361701,-0.645823,-0.50625,-30.937502,-37.575001
1782299869291,0.803988,0.978664,8.576976,-0.143829,-0.423399,-0.689194,-0.50625,-30.937502,-37.575001
1782299869300,0.863809,0.794417,8.816258,-0.190866,-0.500979,-0.739285,-0.50625,-30.937502,-37.575001
1782299869301,0.863809,0.794417,8.816258,-0.190866,-0.500979,-0.739285,-0.375,-30.356251,-37.706253
1782299869309,1.0002,0.509671,9.311573,-0.210413,-0.506476,-0.782657,0.8625,-31.856251,-36.675003
1782299869325,1.007378,0.473779,9.395321,-0.195753,-0.435616,-0.828471,-2.1375,-31.368752,-38.025002
1782299869328,0.868595,0.502493,9.18236,-0.190255,-0.379416,-0.877341,-2.1375,-31.368752,-38.025002
1782299869330,0.868595,0.502493,9.18236,-0.190255,-0.379416,-0.877341,-0.84375,-31.237501,-36.356251
1782299869336,0.729811,0.380459,9.203895,-0.20797,-0.378806,-0.921934,-0.84375,-31.237501,-36.356251
1782299869339,0.729811,0.380459,9.203895,-0.20797,-0.378806,-0.921934,-0.675,-30.356251,-37.40625
1782299869342,0.708275,0.208176,9.51257,-0.214689,-0.392245,-0.961029,-0.675,-30.356251,-37.40625
1782299869349,0.708275,0.208176,9.51257,-0.214689,-0.392245,-0.961029,0.73125,-30.50625,-38.625
1782299869351,0.744168,0.117248,9.763816,-0.181092,-0.343986,-0.993405,0.73125,-30.50625,-38.625
1782299869360,0.751346,0.0,9.878671,-0.111453,-0.26152,-1.031889,0.01875,-30.075001,-36.1875
1782299869370,0.748953,-0.100499,10.029419,-0.025321,-0.189438,-1.070985,-0.7125,-30.806252,-36.206253
1782299869377,0.784846,-0.165105,10.115561,0.066308,-0.140568,-1.106415,-0.7125,-30.806252,-36.206253
1782299869379,0.784846,-0.165105,10.115561,0.066308,-0.140568,-1.106415,0.6375,-29.493752,-37.106251
1782299869385,0.784846,-0.165105,10.115561,0.149997,-0.122242,-1.140623,0.6375,-29.493752,-37.106251
1782299869386,0.823131,-0.196211,10.117954,0.149997,-0.122242,-1.140623,0.6375,-29.493752,-37.106251
1782299869391,0.823131,-0.196211,10.117954,0.149997,-0.122242,-1.140623,0.8625,-30.075001,-38.475002
1782299869394,0.899701,-0.20339,9.991134,0.214138,-0.111247,-1.170556,0.8625,-30.075001,-38.475002
1782299869400,0.899701,-0.20339,9.991134,0.214138,-0.111247,-1.170556,1.8375,-29.362501,-36.637501
1782299869402,0.899701,-0.20339,9.991134,0.254455,-0.100251,-1.203542,1.8375,-29.362501,-36.637501
1782299869403,0.981057,-0.153141,9.837993,0.254455,-0.100251,-1.203542,1.8375,-29.362501,-36.637501
1782299869409,0.981057,-0.153141,9.837993,0.254455,-0.100251,-1.203542,1.14375,-30.075001,-37.706253
1782299869411,0.914058,-0.066999,9.725531,0.276446,-0.097197,-1.234697,1.14375,-30.075001,-37.706253
1782299869422,0.832702,-0.004786,9.543676,0.278278,-0.100862,-1.262796,3.1875,-29.962502,-36.037502
1782299869429,0.832702,-0.004786,9.543676,0.257509,-0.132627,-1.288453,3.1875,-29.962502,-36.037502
1782299869430,0.856631,0.07657,9.3355,0.257509,-0.132627,-1.288453,3.1875,-29.962502,-36.037502
1782299869431,0.856631,0.07657,9.3355,0.257509,-0.132627,-1.288453,2.08125,-31.706251,-37.575001
1782299869436,0.856631,0.07657,9.3355,0.224522,-0.190659,-1.318996,2.08125,-31.706251,-37.575001
1782299869437,0.832702,0.200997,9.273287,0.224522,-0.190659,-1.318996,2.08125,-31.706251,-37.575001
1782299869439,0.832702,0.200997,9.273287,0.224522,-0.190659,-1.318996,2.925,-31.143751,-36.206253
1782299869445,0.748953,0.29671,9.316358,0.193979,-0.243194,-1.344652,2.925,-31.143751,-36.206253
1782299869450,0.748953,0.29671,9.316358,0.193979,-0.243194,-1.344652,4.25625,-30.281252,-35.737503
1782299869454,0.679562,0.31346,9.278073,0.167712,-0.263963,-1.363589,4.25625,-30.281252,-35.737503
1782299869460,0.679562,0.31346,9.278073,0.167712,-0.263963,-1.363589,3.24375,-30.262501,-37.106251
1782299869462,0.679562,0.31346,9.278073,0.13778,-0.272515,-1.380082,3.24375,-30.262501,-37.106251
1782299869463,0.629312,0.337388,9.10579,0.13778,-0.272515,-1.380082,3.24375,-30.262501,-37.106251
1782299869468,0.629312,0.337388,9.10579,0.13778,-0.272515,-1.380082,2.625,-31.44375,-35.90625
1782299869471,0.547956,0.449851,9.081861,0.109069,-0.312221,-1.3923,2.625,-31.44375,-35.90625
1782299869479,0.547956,0.449851,9.081861,0.109069,-0.312221,-1.3923,4.5375,-31.331251,-34.537502
1782299869480,0.413958,0.5001,9.203895,0.09563,-0.365367,-1.397187,4.5375,-31.331251,-34.537502
1782299869490,0.457029,0.92363,9.428821,0.116399,-0.407516,-1.402074,2.85,-29.38125,-35.418751
1782299869497,0.595813,1.380659,9.589139,0.168323,-0.439281,-1.416734,2.85,-29.38125,-35.418751
1782299869499,0.595813,1.380659,9.589139,0.168323,-0.439281,-1.416734,4.95,-30.6,-33.918751
1782299869508,1.064806,1.782653,9.230217,0.207418,-0.449055,-1.431395,4.95,-30.6,-33.918751
1782299869509,1.064806,1.782653,9.230217,0.207418,-0.449055,-1.431395,4.14375,-31.462502,-36.206253
1782299869515,1.272982,1.921437,8.878472,0.188481,-0.43867,-1.45583,4.14375,-31.462502,-36.206253
1782299869519,1.272982,1.921437,8.878472,0.188481,-0.43867,-1.45583,4.78125,-29.718752,-34.368752
1782299869532,1.806581,1.316052,8.861722,0.07425,-0.415457,-1.49126,4.575,-31.031252,-35.737503
1782299869539,1.806581,1.316052,8.861722,0.07425,-0.415457,-1.49126,5.41875,-29.718752,-35.118752
1782299869541,1.624727,0.784846,9.500605,-0.416886,-0.369032,-1.624428,5.41875,-29.718752,-35.118752
1782299869549,1.624727,0.784846,9.500605,-0.725372,-0.36781,-1.697732,5.41875,-29.718752,-35.118752
1782299869550,1.622334,0.277567,10.27588,-0.725372,-0.36781,-1.697732,5.025,-29.981251,-36.806252
1782299869557,1.607977,-0.086142,11.017655,-1.009425,-0.368421,-1.76676,5.025,-29.981251,-36.806252
1782299869558,1.607977,-0.086142,11.017655,-1.009425,-0.368421,-1.76676,5.2875,-30.000002,-35.287502
1782299869565,1.607977,-0.086142,11.017655,-1.193295,-0.386747,-1.816851,5.2875,-30.000002,-35.287502
1782299869566,1.59362,-0.440279,11.754644,-1.193295,-0.386747,-1.816851,5.2875,-30.000002,-35.287502
1782299869568,1.59362,-0.440279,11.754644,-1.193295,-0.386747,-1.816851,7.06875,-29.2875,-35.268753
1782299869574,1.598405,-0.787239,12.362422,-1.214675,-0.383693,-1.848616,7.06875,-29.2875,-35.268753
1782299869579,1.598405,-0.787239,12.362422,-1.214675,-0.383693,-1.848616,6.95625,-29.718752,-35.887501
1782299869583,1.751546,-0.978664,12.695024,-1.068068,-0.29695,-1.865109,6.95625,-29.718752,-35.887501
1782299869591,1.945365,-1.01695,12.716559,-0.785848,-0.117966,-1.877937,8.587501,-28.125002,-36.318752
1782299869599,1.945365,-1.01695,12.716559,-0.785848,-0.117966,-1.877937,7.6125,-26.94375,-35.400002
1782299869600,2.031507,-0.961915,12.003498,-0.435212,0.046356,-1.884046,7.6125,-26.94375,-35.400002
1782299869610,1.892723,-0.68674,11.702002,-0.097403,0.186855,-1.872439,7.81875,-27.525002,-36.768753
1782299869635,1.56012,-0.062213,9.794922,0.282554,0.364006,-1.824181,8.700001,-27.243752,-35.868752
1782299869645,1.244268,0.442672,9.476677,0.188481,0.321856,-1.800357,10.78125,-24.168751,-35.8125
1782299869649,1.244268,0.442672,9.476677,0.188481,0.321856,-1.800357,10.51875,-26.38125,-35.081253
1782299869651,1.165305,0.722632,9.127326,0.064476,0.268711,-1.770425,10.51875,-26.38125,-35.081253
1782299869658,1.165305,0.722632,9.127326,0.064476,0.268711,-1.770425,12.7875,-24.31875,-37.03125
1782299869659,1.071985,0.717847,8.890436,-0.057086,0.187466,-1.721556,12.7875,-24.31875,-37.03125
1782299869670,1.071985,0.717847,8.890436,-0.149327,0.108054,-1.685515,12.7875,-24.31875,-37.03125
1782299869671,0.978664,0.638884,8.8689,-0.149327,0.108054,-1.685515,12.468751,-26.1,-35.212502
1782299869677,0.878166,0.569492,9.014863,-0.200029,0.033528,-1.66108,12.468751,-26.1,-35.212502
1782299869679,0.878166,0.569492,9.014863,-0.200029,0.033528,-1.66108,12.6,-26.700001,-34.012501
1782299869686,0.832702,0.514457,9.246966,-0.2153,-0.018395,-1.626261,12.6,-26.700001,-34.012501
1782299869690,0.832702,0.514457,9.246966,-0.2153,-0.018395,-1.626261,13.81875,-24.187502,-36.5625
1782299869694,0.832702,0.514457,9.246966,-0.210413,-0.058712,-1.584111,13.81875,-24.187502,-36.5625
1782299869695,0.892523,0.48335,9.369,-0.210413,-0.058712,-1.584111,13.81875,-24.187502,-36.5625
1782299869700,0.892523,0.48335,9.369,-0.210413,-0.058712,-1.584111,14.6625,-23.625,-35.193752
1782299869703,0.976272,0.478565,9.416856,-0.19392,-0.135071,-1.552957,14.6625,-23.625,-35.193752
1782299869709,0.976272,0.478565,9.416856,-0.19392,-0.135071,-1.552957,13.500001,-24.337502,-35.962502
1782299869712,0.990629,0.454636,9.373786,-0.181092,-0.224868,-1.535853,13.500001,-24.337502,-35.962502
1782299869719,0.990629,0.454636,9.373786,-0.181092,-0.224868,-1.535853,14.043751,-23.175001,-35.043751
1782299869720,1.028914,0.464208,9.141682,-0.181092,-0.326271,-1.529133,14.043751,-23.175001,-35.043751
1782299869731,1.028914,0.464208,9.141682,-0.196974,-0.412403,-1.535853,15.525001,-22.462502,-34.575001
1782299869733,1.107877,0.411565,9.005291,-0.196974,-0.412403,-1.535853,15.525001,-22.462502,-34.575001
1782299869737,1.268196,0.413958,8.976577,-0.23607,-0.472879,-1.555401,15.525001,-22.462502,-34.575001
1782299869747,1.387837,0.449851,8.923935,-0.288604,-0.540685,-1.59022,15.562501,-22.462502,-35.793751
1782299869749,1.387837,0.449851,8.923935,-0.288604,-0.540685,-1.59022,14.625001,-20.8125,-36.693752
1782299869754,1.514657,0.459422,8.890436,-0.354578,-0.600549,-1.637256,14.625001,-20.8125,-36.693752
1782299869760,1.514657,0.459422,8.890436,-0.354578,-0.600549,-1.637256,17.231251,-22.63125,-35.943752
1782299869763,1.706083,0.433101,8.861722,-0.433379,-0.63598,-1.686737,17.231251,-22.63125,-35.943752
1782299869769,1.706083,0.433101,8.861722,-0.433379,-0.63598,-1.686737,16.462502,-22.612501,-35.493752
1782299869771,1.844866,0.375673,8.967006,-0.507294,-0.646364,-1.741714,16.462502,-22.612501,-35.493752
1782299869779,1.844866,0.375673,8.967006,-0.507294,-0.646364,-1.741714,17.212502,-21.581251,-36.243752
1782299869780,1.844866,0.375673,8.967006,-0.561661,-0.636591,-1.799136,17.212502,-21.581251,-36.243752
1782299869781,1.998007,0.33021,9.081861,-0.561661,-0.636591,-1.799136,17.212502,-21.581251,-36.243752
1782299869790,2.100898,0.282353,9.191931,-0.592204,-0.603604,-1.856557,15.918751,-20.1,-35.456253
1782299869800,2.208575,0.246461,9.34268,-0.594647,-0.557789,-1.910313,16.5,-18.337502,-36.056252
1782299869807,2.287539,0.241675,9.469499,-0.568991,-0.497924,-1.956128,16.5,-18.337502,-36.056252
1782299869809,2.287539,0.241675,9.469499,-0.568991,-0.497924,-1.956128,16.5,-19.387501,-35.306252
1782299869814,2.287539,0.241675,9.469499,-0.515235,-0.428286,-1.990336,16.5,-19.387501,-35.306252
1782299869815,2.26361,0.260818,9.550854,-0.515235,-0.428286,-1.990336,16.5,-19.387501,-35.306252
1782299869820,2.26361,0.260818,9.550854,-0.515235,-0.428286,-1.990336,17.606251,-18.337502,-37.875
1782299869823,2.146362,0.275175,9.584354,-0.440099,-0.351928,-2.011717,17.606251,-18.337502,-37.875
1782299869829,2.146362,0.275175,9.584354,-0.440099,-0.351928,-2.011717,16.40625,-19.518751,-36.975002
1782299869833,1.969293,0.277567,9.569997,-0.36374,-0.281067,-2.019658,16.40625,-19.518751,-36.975002
1782299869841,1.81376,0.301496,9.57239,-0.2996,-0.215705,-2.018436,17.19375,-17.925001,-34.987503
1782299869853,1.663012,0.356531,9.641782,-0.253785,-0.185161,-2.008051,16.81875,-16.556252,-38.625
1782299869857,1.550549,0.404387,9.725531,-0.231794,-0.179053,-1.987282,16.81875,-16.556252,-38.625
1782299869859,1.550549,0.404387,9.725531,-0.231794,-0.179053,-1.987282,17.4375,-16.706251,-38.475002
1782299869866,1.519442,0.454636,9.845171,-0.233015,-0.188827,-1.959182,17.4375,-16.706251,-38.475002
1782299869869,1.519442,0.454636,9.845171,-0.233015,-0.188827,-1.959182,18.487501,-16.725,-38.475002
1782299869874,1.459622,0.468993,9.9361,-0.259283,-0.208985,-1.926195,18.487501,-16.725,-38.475002
1782299869880,1.459622,0.468993,9.9361,-0.259283,-0.208985,-1.926195,19.556252,-16.59375,-38.925003
1782299869883,1.40698,0.492921,9.921742,-0.301432,-0.230365,-1.886489,19.556252,-16.59375,-38.925003
1782299869889,1.40698,0.492921,9.921742,-0.301432,-0.230365,-1.886489,18.1875,-12.900001,-37.518753
1782299869892,1.287339,0.509671,9.926528,-0.350912,-0.253578,-1.842507,18.1875,-12.900001,-37.518753
1782299869899,1.287339,0.509671,9.926528,-0.350912,-0.253578,-1.842507,18.806252,-13.950001,-36.918751
1782299869900,1.20359,0.504886,9.948063,-0.403447,-0.265185,-1.792416,18.806252,-13.950001,-36.918751
1782299869910,1.134198,0.454636,9.998313,-0.446207,-0.252357,-1.742936,18.375,-14.231251,-37.6875
1782299869918,1.069592,0.464208,10.058133,-0.470642,-0.234641,-1.695289,18.375,-14.231251,-37.6875
1782299869919,1.069592,0.464208,10.058133,-0.470642,-0.234641,-1.695289,18.900002,-13.481251,-40.256252
1782299869926,0.971486,0.461815,10.201703,-0.471864,-0.218759,-1.649474,18.900002,-13.481251,-40.256252
1782299869929,0.971486,0.461815,10.201703,-0.471864,-0.218759,-1.649474,19.893751,-12.76875,-39.1875
1782299869935,0.868595,0.435494,10.362022,-0.458425,-0.201655,-1.60427,19.893751,-12.76875,-39.1875
1782299869940,0.868595,0.435494,10.362022,-0.458425,-0.201655,-1.60427,19.706251,-12.31875,-38.568752
1782299869943,0.868595,0.435494,10.362022,-0.433379,-0.197379,-1.566396,19.706251,-12.31875,-38.568752
1782299869944,0.801596,0.461815,10.436199,-0.433379,-0.197379,-1.566396,19.706251,-12.31875,-38.568752
1782299869962,0.660419,0.602991,10.220845,-0.405279,-0.224257,-1.536464,20.475,-10.837501,-40.387501
1782299869970,0.521635,0.713061,10.139489,-0.346636,-0.317719,-1.492482,21.0,-10.275001,-38.400002
1782299869977,0.521635,0.713061,10.139489,-0.30693,-0.34643,-1.477821,21.0,-10.275001,-38.400002
1782299869978,0.490529,0.787239,10.000705,-0.30693,-0.34643,-1.477821,20.38125,-9.375,-38.850002
1782299869987,0.490529,0.868595,9.747066,-0.265391,-0.372697,-1.469269,20.38125,-9.375,-38.850002
1782299869990,0.490529,0.868595,9.747066,-0.265391,-0.372697,-1.469269,21.46875,-9.09375,-40.068752
1782299869995,0.552742,0.959522,9.443178,-0.23607,-0.38919,-1.46316,21.46875,-9.09375,-40.068752
1782299870000,0.552742,0.959522,9.443178,-0.23607,-0.38919,-1.46316,20.643751,-8.0625,-38.53125
1782299870004,0.612563,1.024128,9.179967,-0.224463,-0.383082,-1.454608,20.643751,-8.0625,-38.53125
1782299870009,0.612563,1.024128,9.179967,-0.224463,-0.383082,-1.454608,20.981251,-8.19375,-39.900002
1782299870012,0.660419,1.081556,9.067504,-0.230572,-0.342765,-1.446667,20.981251,-8.19375,-39.900002
1782299870019,0.660419,1.081556,9.067504,-0.230572,-0.342765,-1.446667,20.681252,-9.39375,-38.550003
1782299870020,0.660419,1.081556,9.067504,-0.240957,-0.289619,-1.436282,20.681252,-9.39375,-38.550003
1782299870021,0.68674,1.088734,9.079468,-0.240957,-0.289619,-1.436282,20.681252,-9.39375,-38.550003
1782299870030,0.68674,1.088734,9.079468,-0.240957,-0.289619,-1.436282,21.112501,-8.0625,-39.300003
1782299870031,0.653241,1.083949,9.179967,-0.261115,-0.239528,-1.422232,21.112501,-8.0625,-39.300003
1782299870037,0.653241,1.083949,9.179967,-0.280052,-0.208374,-1.407571,21.112501,-8.0625,-39.300003
1782299870038,0.648455,1.06002,9.304394,-0.280052,-0.208374,-1.407571,21.112501,-8.0625,-39.300003
1782299870039,0.648455,1.06002,9.304394,-0.280052,-0.208374,-1.407571,20.175001,-6.73125,-39.431252
1782299870046,0.648455,1.06002,9.304394,-0.287382,-0.202266,-1.393521,20.175001,-6.73125,-39.431252
1782299870062,0.725025,0.933201,9.802101,-0.273332,-0.19127,-1.379471,21.375,-5.55,-40.331253
1782299870065,0.722632,0.904487,9.940885,-0.232405,-0.175388,-1.365422,21.375,-5.55,-40.331253
1782299870069,0.722632,0.904487,9.940885,-0.232405,-0.175388,-1.365422,21.31875,-4.81875,-39.5625
1782299870072,0.662812,0.949951,9.924135,-0.173762,-0.158894,-1.348928,21.31875,-4.81875,-39.5625
1782299870079,0.662812,0.949951,9.924135,-0.173762,-0.158894,-1.348928,21.31875,-4.81875,-39.5625
1782299870080,0.605384,1.014557,9.797315,-0.103512,-0.158283,-1.325715,21.31875,-4.81875,-39.5625
1782299870090,0.624527,1.095913,9.622639,-0.030208,-0.175998,-1.298227,21.1875,-5.26875,-39.412502
1782299870098,0.68674,1.17009,9.452749,0.044317,-0.1986,-1.268294,21.1875,-5.26875,-39.412502
1782299870099,0.68674,1.17009,9.452749,0.044317,-0.1986,-1.268294,20.118752,-6.0,-38.662502
1782299870106,0.789631,1.320838,9.416856,0.112734,-0.217537,-1.243859,20.118752,-6.0,-38.662502
1782299870109,0.789631,1.320838,9.416856,0.112734,-0.217537,-1.243859,20.175001,-5.98125,-40.481251
1782299870115,0.830309,1.452443,9.464713,0.15244,-0.174777,-1.233475,20.175001,-5.98125,-40.481251
1782299870120,0.830309,1.452443,9.464713,0.15244,-0.174777,-1.233475,19.81875,-5.55,-38.8125
1782299870123,0.942772,1.442872,9.263716,0.154884,-0.125297,-1.223701,19.81875,-5.55,-38.8125
1782299870129,0.942772,1.442872,9.263716,0.154884,-0.125297,-1.223701,21.50625,-5.26875,-40.181252
1782299870132,0.990629,1.411765,9.191931,0.115178,-0.100862,-1.203542,21.50625,-5.26875,-40.181252
1782299870139,0.990629,1.411765,9.191931,0.115178,-0.100862,-1.203542,22.425001,-4.3875,-41.081253
1782299870141,1.038485,1.454836,9.21586,0.052869,-0.083147,-1.179719,22.425001,-4.3875,-41.081253
1782299870151,1.079163,1.476372,9.333107,-0.013715,-0.080704,-1.157728,19.387501,-3.15,-41.981251
1782299870170,1.105484,1.464407,9.610675,-0.066249,-0.07826,-1.135126,19.387501,-3.15,-41.981251
1782299870171,0.945165,1.428515,9.904993,-0.093127,-0.063599,-1.105804,22.650002,-2.775,-40.443752
1782299870175,0.945165,1.428515,9.904993,-0.08091,-0.026947,-1.061822,22.650002,-2.775,-40.443752
1782299870176,0.693919,1.40698,10.110775,-0.08091,-0.026947,-1.061822,22.650002,-2.775,-40.443752
1782299870180,0.693919,1.40698,10.110775,-0.08091,-0.026947,-1.061822,21.7875,-4.0875,-40.762501
1782299870183,0.555135,1.375873,10.321344,-0.023489,0.035972,-1.01845,21.7875,-4.0875,-40.762501
1782299870189,0.555135,1.375873,10.321344,-0.023489,0.035972,-1.01845,19.743752,-2.5875,-39.543751
1782299870192,0.51685,1.35673,10.371593,0.068141,0.103167,-0.978133,19.743752,-2.5875,-39.543751
1782299870199,0.51685,1.35673,10.371593,0.068141,0.103167,-0.978133,21.46875,-3.9375,-40.462502
1782299870200,0.51685,1.35673,10.371593,0.173821,0.140429,-0.941481,21.46875,-3.9375,-40.462502
1782299870201,0.51685,1.421337,10.247166,0.173821,0.140429,-0.941481,21.46875,-3.9375,-40.462502
1782299870210,0.51685,1.421337,10.247166,0.266061,0.158755,-0.904219,21.46875,-3.9375,-40.462502
1782299870211,0.533599,1.545763,10.036598,0.266061,0.158755,-0.904219,21.225,-2.325,-38.775002
1782299870221,0.638884,1.70369,9.88585,0.327148,0.164253,-0.869399,22.03125,-2.625,-39.993752
1782299870227,0.650848,1.768296,9.871493,0.354026,0.139208,-0.837634,22.03125,-2.625,-39.993752
1782299870229,0.650848,1.768296,9.871493,0.354026,0.139208,-0.837634,21.900002,-3.50625,-40.162502
1782299870235,0.634098,1.840081,9.921742,0.346695,0.101334,-0.804037,21.900002,-3.50625,-40.162502
1782299870239,0.634098,1.840081,9.921742,0.346695,0.101334,-0.804037,22.200001,-2.75625,-40.443752
1782299870243,0.634098,1.840081,9.921742,0.308211,0.072623,-0.77105,22.200001,-2.75625,-40.443752
1782299870244,0.617348,1.871187,9.97917,0.308211,0.072623,-0.77105,22.200001,-2.75625,-40.443752
1782299870249,0.617348,1.871187,9.97917,0.308211,0.072623,-0.77105,22.856251,-3.7875,-41.381252
1782299870252,0.612563,1.919044,10.043776,0.253233,0.053687,-0.737453,22.856251,-3.7875,-41.381252
1782299870266,0.588634,1.919044,10.141881,0.192757,0.05613,-0.702022,22.181252,-3.20625,-39.84375
1782299870270,0.492921,1.875973,10.283059,0.147553,0.087284,-0.656818,22.800001,-1.875,-41.043751
1782299870279,0.492921,1.875973,10.283059,0.127395,0.12638,-0.604284,23.71875,-3.225,-40.462502
1782299870280,0.382852,1.887937,10.510376,0.127395,0.12638,-0.604284,23.71875,-3.225,-40.462502
1782299870287,0.275175,1.871187,10.68266,0.140834,0.155701,-0.553582,23.71875,-3.225,-40.462502
1782299870289,0.275175,1.871187,10.68266,0.140834,0.155701,-0.553582,23.868752,-2.625,-40.762501
1782299870295,0.234497,1.847259,10.799908,0.176875,0.16914,-0.50227,23.868752,-2.625,-40.762501
1782299870300,0.234497,1.847259,10.799908,0.176875,0.16914,-0.50227,24.262501,-2.3625,-39.243752
1782299870303,0.234497,1.847259,10.799908,0.21597,0.159977,-0.455233,24.262501,-2.3625,-39.243752
1782299870304,0.236889,1.840081,10.850157,0.21597,0.159977,-0.455233,24.262501,-2.3625,-39.243752
1782299870309,0.236889,1.840081,10.850157,0.21597,0.159977,-0.455233,22.21875,-3.50625,-40.462502
1782299870312,0.236889,1.840081,10.850157,0.24407,0.117217,-0.411862,22.21875,-3.50625,-40.462502
1782299870313,0.122034,1.823331,10.929121,0.24407,0.117217,-0.411862,22.21875,-3.50625,-40.462502
1782299870319,0.122034,1.823331,10.929121,0.24407,0.117217,-0.411862,21.88125,-3.20625,-39.84375
1782299870320,0.122034,1.823331,10.929121,0.250179,0.053076,-0.365436,21.88125,-3.20625,-39.84375
1782299870321,-0.0335,1.785046,11.132511,0.250179,0.053076,-0.365436,21.88125,-3.20625,-39.84375
1782299870331,-0.117248,1.801795,11.297616,0.229409,-0.003124,-0.317178,22.950001,-2.775,-40.143753
1782299870340,-0.153141,1.847259,11.455541,0.190925,-0.050771,-0.272585,23.831251,-2.34375,-39.993752
1782299870348,-0.236889,1.914258,11.570397,0.149997,-0.073984,-0.229824,23.831251,-2.34375,-39.993752
1782299870350,-0.236889,1.914258,11.570397,0.149997,-0.073984,-0.229824,24.7875,-3.225,-40.912502
1782299870356,-0.20339,1.931008,11.503398,0.121897,-0.067875,-0.187674,24.7875,-3.225,-40.912502
1782299870370,-0.181855,1.864009,11.38615,0.121897,-0.067875,-0.187674,24.7875,-3.225,-40.912502
1782299870371,-0.181855,1.864009,11.38615,0.10968,-0.027558,-0.150412,24.806252,-4.275,-40.162502
1782299870372,-0.217747,1.818545,11.417256,0.105404,0.043913,-0.116814,24.806252,-4.275,-40.162502
1782299870379,-0.217747,1.818545,11.417256,0.105404,0.043913,-0.116814,24.018751,-2.79375,-40.443752
1782299870381,-0.244068,1.773082,11.422042,0.101738,0.122104,-0.081384,24.018751,-2.79375,-40.443752
1782299870390,-0.229711,1.689333,11.357436,0.078526,0.167308,-0.04351,23.681252,-2.49375,-40.143753
1782299870399,-0.198604,1.495514,11.266509,0.028435,0.166697,-0.016632,24.525002,-3.1125,-37.425003
1782299870407,-0.193819,1.20359,11.189938,-0.044869,0.127601,-0.003804,24.525002,-3.1125,-37.425003
1782299870409,-0.193819,1.20359,11.189938,-0.044869,0.127601,-0.003804,24.0,-2.19375,-40.893753
1782299870415,-0.277567,0.937986,11.278472,-0.121838,0.082397,-0.004415,24.0,-2.19375,-40.893753
1782299870420,-0.277567,0.937986,11.278472,-0.121838,0.082397,-0.004415,24.018751,-2.775,-40.912502
1782299870424,-0.351745,0.770489,11.429221,-0.178038,0.031696,-0.019076,24.018751,-2.775,-40.912502
1782299870429,-0.351745,0.770489,11.429221,-0.178038,0.031696,-0.019076,24.262501,-2.3625,-39.543751
1782299870433,-0.351745,0.770489,11.429221,-0.200029,-0.033056,-0.036791,24.262501,-2.3625,-39.543751
1782299870434,-0.430708,0.528814,11.41247,-0.200029,-0.033056,-0.036791,24.262501,-2.3625,-39.543751
1782299870439,-0.430708,0.528814,11.41247,-0.200029,-0.033056,-0.036791,25.650002,-1.63125,-41.043751
1782299870441,-0.485743,0.282353,11.393328,-0.195142,-0.116745,-0.051451,25.650002,-1.63125,-41.043751
1782299870450,-0.425922,0.088534,11.434006,-0.157268,-0.21265,-0.05756,22.950001,-1.44375,-41.962502
1782299870459,-0.425922,0.088534,11.434006,-0.080299,-0.273737,-0.051451,22.950001,-1.44375,-41.962502
1782299870460,-0.33021,-0.01675,11.474684,-0.080299,-0.273737,-0.051451,24.31875,-1.89375,-41.362503
1782299870484,0.124427,0.452243,10.129918,0.333867,-0.123464,0.03407,24.806252,-2.19375,-42.262501
1782299870489,0.124427,0.452243,10.129918,0.333867,-0.123464,0.03407,23.681252,-2.19375,-40.143753
1782299870492,0.265603,0.691526,9.299609,0.462149,-0.05688,0.068889,23.681252,-2.19375,-40.143753
1782299870499,0.265603,0.691526,9.299609,0.462149,-0.05688,0.068889,23.700001,-2.49375,-40.443752
1782299870501,0.320638,0.868595,8.600904,0.543394,0.001763,0.099432,23.700001,-2.49375,-40.443752
1782299870510,0.320638,0.868595,8.600904,0.567828,0.043302,0.121423,24.450001,-3.54375,-39.09375
1782299870511,0.265603,1.055235,8.086447,0.567828,0.043302,0.121423,24.450001,-3.54375,-39.09375
1782299870520,0.160319,1.229911,7.777773,0.529955,0.053076,0.139138,25.181252,-2.5125,-39.393753
1782299870527,0.062213,1.328017,7.612669,0.430995,0.025587,0.152577,25.181252,-2.5125,-39.393753
1782299870529,0.062213,1.328017,7.612669,0.430995,0.025587,0.152577,23.1,-4.10625,-39.243752
1782299870535,-0.074178,1.380659,7.670096,0.285609,-0.045884,0.160519,23.1,-4.10625,-39.243752
1782299870539,-0.074178,1.380659,7.670096,0.285609,-0.045884,0.160519,24.6,-2.34375,-40.293751
1782299870544,-0.184247,1.342373,7.878272,0.121897,-0.139347,0.169071,24.6,-2.34375,-40.293751
1782299870549,-0.184247,1.342373,7.878272,0.121897,-0.139347,0.169071,24.862501,-5.00625,-41.231251
1782299870552,-0.265603,1.241875,8.143875,-0.025932,-0.21937,0.181899,24.862501,-5.00625,-41.231251
1782299870559,-0.265603,1.241875,8.143875,-0.025932,-0.21937,0.181899,24.862501,-5.00625,-41.231251
1782299870561,-0.327817,1.105484,8.426228,-0.128558,-0.2548,0.19717,24.862501,-5.00625,-41.231251
1782299870572,-0.375673,0.947558,8.600904,-0.167042,-0.242583,0.21122,23.587502,-3.375,-40.762501
1782299870580,-0.363709,0.842274,8.703796,-0.152992,-0.207153,0.224659,23.587502,-3.375,-40.762501
1782299870581,-0.363709,0.842274,8.703796,-0.152992,-0.207153,0.224659,23.94375,-3.80625,-42.131252
1782299870587,-0.363709,0.842274,8.703796,-0.101679,-0.152175,0.23932,23.94375,-3.80625,-42.131252
1782299870588,-0.31346,0.770489,8.74926,-0.101679,-0.152175,0.23932,23.94375,-3.80625,-42.131252
1782299870589,-0.31346,0.770489,8.74926,-0.101679,-0.152175,0.23932,23.081251,-4.96875,-42.300003
1782299870595,-0.224925,0.792024,8.694224,-0.035706,-0.087423,0.256424,23.081251,-4.96875,-42.300003
1782299870600,-0.224925,0.792024,8.694224,-0.035706,-0.087423,0.256424,22.856251,-4.8375,-40.3125
1782299870604,-0.088534,0.808774,8.608082,0.018661,-0.02878,0.269863,22.856251,-4.8375,-40.3125
1782299870610,-0.088534,0.808774,8.608082,0.018661,-0.02878,0.269863,23.775002,-3.50625,-41.981251
1782299870613,-0.011964,0.820738,8.543477,0.05348,0.024365,0.278416,23.775002,-3.50625,-41.981251
1782299870623,0.031107,0.844666,8.47887,0.06753,0.067737,0.279026,23.71875,-3.225,-40.462502
1782299870631,0.023928,0.935594,8.404692,0.072417,0.0769,0.269863,25.125002,-3.075,-41.8125
1782299870639,-0.047856,1.095913,8.416657,0.079136,0.036582,0.254592,22.762501,-4.96875,-42.0
1782299870647,-0.07657,1.339981,8.500406,0.084634,0.00665,0.226492,22.762501,-4.96875,-42.0
1782299870648,-0.07657,1.339981,8.500406,0.084634,0.00665,0.226492,22.762501,-5.71875,-40.931252
1782299870655,-0.064606,1.440479,8.356836,0.080969,0.008483,0.18984,22.762501,-5.71875,-40.931252
1782299870658,-0.064606,1.440479,8.356836,0.080969,0.008483,0.18984,23.025002,-4.2375,-41.231251
1782299870664,-0.057428,1.473979,8.194125,0.073028,0.019478,0.153188,23.025002,-4.2375,-41.231251
1782299870669,-0.057428,1.473979,8.194125,0.073028,0.019478,0.153188,23.8125,-4.6875,-41.681252
1782299870675,0.014357,1.473979,8.052948,0.060811,0.031085,0.116536,23.8125,-4.6875,-41.681252
1782299870680,0.014357,1.473979,8.052948,0.060811,0.031085,0.116536,24.450001,-6.16875,-41.400002
1782299870681,0.117248,1.5003,8.045769,0.052258,0.032306,0.076219,24.450001,-6.16875,-41.400002
1782299870688,0.117248,1.5003,8.045769,0.052258,0.032306,0.076219,23.962502,-5.1375,-41.381252
1782299870689,0.267996,1.536192,8.201303,0.051037,0.032917,0.032237,23.962502,-5.1375,-41.381252
1782299870699,0.380459,1.579263,8.407086,0.057145,0.035361,-0.012356,24.543751,-5.00625,-40.931252
1782299870707,0.449851,1.624727,8.634404,0.065697,0.035972,-0.05023,24.543751,-5.00625,-40.931252
1782299870708,0.449851,1.624727,8.634404,0.065697,0.035972,-0.05023,23.043751,-4.2375,-41.981251
