ts,ax,ay,az,gx,gy,gz,mx,my,mz
1774512339848,0.4309563,2.1499932,9.184157,-0.09773844,0.05497787,0.05497787,-17.94,-4.5,-38.52
1774512339876,0.45010993,2.183512,9.198523,-0.12339478,0.062308256,0.05497787,-18.18,-5.1,-37.559998
1774512339896,0.48841715,2.1643584,9.169792,-0.15393804,0.08307768,0.059864793,-18.24,-5.1,-37.98
1774512339916,0.4405331,2.1547816,9.193734,-0.19303341,0.13927728,0.05375614,-19.02,-5.4,-37.98
1774512339938,0.4357447,2.1308396,9.193734,-0.21135938,0.15027285,0.043982297,-19.439999,-5.58,-38.34
1774512339957,0.45010993,2.1452048,9.23683,-0.23090707,0.10995574,0.02076942,-19.68,-5.7,-38.52
1774512339979,0.47884035,2.207454,9.26556,-0.24556783,0.09407325,-0.015882496,-19.439999,-5.52,-38.219997
1774512339999,0.5554548,2.2888567,9.136273,-0.28710666,0.10751228,-0.061086524,-18.66,-5.16,-37.98
1774512340021,0.770933,2.4995465,9.064447,-0.3555236,0.11728613,-0.13316862,-17.94,-4.8599997,-37.559998
1774512340042,0.9864111,2.542642,9.409213,-0.41783184,0.1563815,-0.22479841,-18.48,-4.74,-37.86
1774512340062,0.9576807,1.9967642,9.275137,-0.5876524,0.39706242,-0.37140608,-18.84,-4.56,-38.46
1774512340083,0.6703765,1.3263878,8.820239,-0.6597345,0.29810223,-0.38606682,-19.02,-4.44,-38.76
1774512340103,1.6472107,2.111686,8.939949,-0.69027776,0.21624629,-0.6206391,-19.14,-4.14,-39.12
1774512340123,0.33518824,1.7142484,8.695741,-0.7171558,0.05009095,-0.6401868,-17.88,-2.8799999,-39.6
1774512340142,-0.11492168,1.1923125,8.446744,-0.7171558,0.05009095,-0.6401868,-17.1,-2.28,-39.3
1774512340163,-0.320823,0.39743748,8.327033,-0.93951076,-0.30909783,-0.3848451,-17.16,-1.9799999,-39.66
1774512340183,0.18674773,0.58897364,8.207323,-1.423316,-0.46303585,-0.3494149,-17.16,-1.8,-39.96
1774512340204,0.45010993,0.56982,8.269572,-1.7482964,-0.3042109,-0.37384954,-18.66,-2.04,-39.54
1774512340223,0.93373865,0.4405331,9.414001,-1.7556267,0.14538592,-0.51923543,-19.08,-1.38,-39.42
1774512340244,0.81402856,0.31603462,10.089166,-1.6884315,0.48991394,-0.66828656,-19.14,-0.12,-39.84
1774512340264,0.17717093,0.2873042,10.180145,-1.6065756,0.62796944,-0.91629785,-19.74,0.78,-39.96
1774512340284,-0.11492168,-0.4357447,9.825804,-1.4062119,0.61208695,-1.1765264,-18.9,2.1599998,-40.26
1774512340305,-0.8858546,-1.115698,9.959879,-1.097114,0.4166101,-1.3891076,-19.14,3.0,-40.8
1774512340325,-1.4221559,-2.0829554,9.241618,-0.95539325,0.09162979,-1.423316,-18.72,4.5,-40.62
1774512340346,-2.303222,-2.705448,8.916007,-0.816116,-0.3555236,-1.0665708,-18.779999,5.04,-40.62
1774512340366,-2.719813,-3.739743,9.974244,-0.59131753,-0.46181414,-0.31031954,-18.48,5.94,-40.62
1774512340386,-0.79487497,-1.2545617,12.109872,-0.7049385,0.02321288,0.32742378,-18.18,6.48,-40.92
1774512340407,0.16759412,-0.2633622,12.215217,-0.5412266,0.1001819,0.2968805,-18.48,6.42,-40.68
1774512340427,0.16759412,-0.2633622,12.215217,-0.08307768,-0.16737708,0.15149458,-18.24,7.2599998,-40.44
1774512340447,0.20590134,-0.50278234,11.3964,0.32620203,-0.41538838,0.0842994,-18.3,7.3199997,-39.84
1774512340468,0.20590134,-1.0342951,10.79785,0.5644395,-0.35185838,0.09162979,-18.84,7.2599998,-39.059998
1774512340488,0.7374141,-1.1492168,9.988609,0.59986967,-0.17348573,0.13439035,-18.9,7.3799996,-39.0
1774512340509,1.3455414,-0.79008657,10.323798,0.5888741,-0.24190263,0.13439035,-19.5,7.08,-39.42
1774512340529,1.7046716,-0.34476504,10.400413,0.5546656,-0.09896017,-0.06719518,-19.8,6.96,-39.66
1774512340548,1.1109096,-0.58897364,10.668563,0.55955255,0.23701571,-0.29810223,-19.98,6.7799997,-39.96
1774512340569,0.59855044,-1.6759412,9.89763,0.535118,0.3408628,-0.18081611,-20.279999,6.2999997,-40.14
1774512340590,0.30645782,-1.5562311,8.542512,0.42394048,0.02565634,0.111177474,-19.8,6.66,-39.719997
1774512340610,0.17717093,-1.0582372,9.9790325,0.22235495,-0.17959438,0.20769419,-19.56,6.12,-39.96
1774512340630,-0.07182605,-0.91937345,10.0029745,0.2761111,0.039095376,0.27488935,-19.439999,5.7,-40.14
1774512340651,0.08140286,-0.62249243,9.399636,0.47891834,0.1441642,0.31764993,-19.32,5.3399997,-39.84
1774512340672,0.34476504,-0.41180268,9.667787,0.6963864,0.015882496,0.28344148,-19.26,5.04,-40.079998
1774512340692,0.51714754,-0.2873042,9.3661175,0.8491027,-0.08552113,0.26389378,-18.96,5.1,-40.02
1774512340713,0.45489833,0.110133275,8.911219,0.89552844,-0.13561209,0.32498032,-18.3,5.4,-39.78
1774512340734,0.6991069,0.62728083,8.580819,0.8564331,-0.10629055,0.39706242,-18.42,4.92,-39.899998
1774512340755,0.80924016,1.1061212,8.236053,0.6609562,0.014660766,0.408058,-18.48,4.5,-40.14
1774512340777,0.521936,1.3838485,7.967903,0.3921755,0.15760323,0.3921755,-19.08,3.1799998,-40.079998
1774512340799,0.33518824,2.0685902,8.0924015,0.3811799,0.12705997,0.3323107,-18.84,3.0,-40.739998
1774512340819,-0.02873042,1.6472107,7.651869,0.32742378,-0.13194689,0.1685988,-18.42,2.46,-40.5
1774512340841,0.3878607,1.4652514,8.6095495,-0.052534413,-0.21135938,0.1685988,-18.3,2.46,-40.62
1774512340862,0.5554548,1.4939818,9.562442,-0.25411993,-0.10751228,0.17959438,-18.42,1.9799999,-40.68
1774512340882,0.40222588,1.2976574,10.079589,-0.21624629,-0.080634214,0.15515977,-18.42,2.28,-40.379997
1774512340903,0.24420857,1.1731589,10.520123,0.22235495,-0.10262536,0.26267207,-18.6,2.3999999,-40.26
1774512340923,-0.0047884034,1.2449849,10.409989,0.22235495,-0.10262536,0.26267207,-18.6,2.6399999,-40.26
1774512340943,-0.1388637,1.163582,9.801862,0.32498032,0.042760566,0.6169739,-18.539999,2.9399998,-39.54
1774512340964,-0.2825158,1.2354081,9.193734,0.21746802,0.04520403,0.7147123,-19.02,2.3999999,-39.36
1774512340985,-0.062249243,1.5753847,9.011775,0.19181168,-0.013439035,0.70249504,-18.9,2.7,-39.48
1774512341006,0.1388637,1.7286136,9.260772,0.2761111,-0.10629055,0.6988298,-19.02,2.8799999,-39.239998
1774512341027,0.9816227,2.3080103,10.060435,0.30176744,-0.16615535,0.73792523,-19.439999,3.1799998,-39.78
1774512341046,1.2641385,2.336741,10.405201,0.14782938,-0.09896017,0.6414085,-19.02,3.84,-39.899998
1774512341066,1.8818425,2.2457612,11.18571,-0.013439035,-0.10873401,0.4972443,-19.02,4.2,-39.66
1774512341087,1.8722657,1.4173675,12.167333,-0.089186326,-0.059864793,0.312763,-19.199999,4.14,-40.079998
1774512341108,1.043872,1.0103531,12.210428,-0.010995574,0.09162979,0.23945917,-18.84,4.68,-40.14
1774512341128,0.6560113,0.10534488,11.611878,0.032986723,0.15882497,0.18325958,-19.08,4.74,-39.84
1774512341150,0.62728083,-1.0534488,11.444284,-0.21013765,0.15027285,0.15515977,-19.5,4.74,-40.26
1774512341170,0.842759,-1.6424223,11.506534,-0.18692477,0.015882496,0.096516706,-19.38,5.04,-40.44
1774512341192,0.78529817,-1.8674773,11.171345,0.059864793,-0.07941248,-0.036651913,-19.619999,4.3199997,-40.5
1774512341213,0.5602432,-1.7286136,10.012551,0.39706242,-0.18081611,-0.09285152,-19.26,4.7999997,-40.5
1774512341235,0.2633622,-1.2449849,9.193734,0.57787853,-0.16126843,-0.06963864,-19.199999,4.56,-40.5
1774512341257,0.023942016,-1.1013328,7.824251,0.52778757,-0.073303826,0.02076942,-19.14,4.62,-40.14
1774512341277,-0.24899697,-1.0773908,7.603985,0.17959438,-0.15393804,0.09407325,-19.74,3.4199998,-40.26
1774512341296,-0.45968673,-1.5562311,8.738836,-0.172264,-0.20769419,0.096516706,-19.5,3.4199998,-40.02
1774512341317,-0.59855044,-1.9057846,9.715671,-0.2773328,-0.103847094,0.105068825,-19.8,3.4199998,-40.32
1774512341336,-0.62249243,-2.1643584,10.386047,-0.19425514,0.04642576,0.095294975,-19.26,4.08,-40.32
1774512341357,-0.6607997,-2.2026656,10.132261,-0.04886922,0.2284636,0.08552113,-19.02,4.98,-40.379997
1774512341379,-0.7326257,-2.030283,9.725247,0.064751714,0.26511553,0.09407325,-19.38,4.62,-40.739998
1774512341401,-0.60333884,-1.7046716,9.179369,0.14049901,0.21624629,0.14172074,-18.84,4.68,-40.92
1774512341423,-0.37828386,-1.4221559,8.959103,0.118507855,0.16126843,0.19425514,-18.72,4.74,-41.399998
1774512341443,-0.23463176,-1.1779473,8.829816,-0.036651913,0.10140363,0.2003638,-18.18,4.8599997,-41.28
1774512341465,-0.095768064,-0.9720459,8.887277,-0.112399206,0.0720821,0.14660765,-17.64,5.64,-40.98
1774512341485,0.047884032,-0.7469909,8.825027,-0.17837265,0.08307768,0.0720821,-18.0,5.2799997,-40.68
1774512341505,0.23942018,-0.6943185,9.284714,-0.17348573,0.15882497,0.02687807,-17.22,6.0,-40.86
1774512341526,0.24899697,-0.7134721,9.442732,-0.13439035,0.1685988,0.02076942,-16.92,6.3599997,-41.34
1774512341545,-0.33039984,-0.90500826,9.490616,-0.10262536,0.12950343,0.07574729,-16.98,6.18,-41.64
1774512341566,-0.33039984,-0.90500826,9.490616,-0.12461651,0.07574729,0.112399206,-16.56,6.7799997,-41.82
1774512341587,-0.16759412,-0.89064306,9.797073,-0.14782938,0.010995574,0.10629055,-17.76,5.3399997,-40.92
1774512341607,-0.08140286,-0.8379706,10.146626,-0.16371189,0.0061086523,0.07574729,-18.119999,4.92,-40.559998
1774512341628,-0.076614454,-0.80924016,10.333375,-0.1001819,0.095294975,0.0061086523,-19.5,5.04,-41.34
1774512341649,-0.062249243,-0.79487497,10.084377,0.0061086523,0.14782938,-0.05131268,-19.68,5.1,-41.52
1774512341671,-0.11971009,-0.6847417,9.763555,0.034208454,0.13439035,-0.095294975,-18.9,6.6,-42.36
1774512341693,0.01436521,-0.5602432,9.782708,0.008552114,0.07819075,-0.14660765,-18.48,6.66,-42.719997
1774512341714,0.05746084,-0.4405331,9.902418,0.007330383,0.06352998,-0.19181168,-16.44,7.2599998,-41.879997
1774512341734,0.110133275,-0.4261679,9.773131,0.036651913,0.061086524,-0.23335053,-16.14,7.2599998,-41.28
1774512341755,0.17717093,-0.37349546,9.830592,0.11728613,0.02321288,-0.27855456,-16.5,6.18,-41.04
1774512341775,0.076614454,-0.29209262,9.682152,0.21746802,0.013439035,-0.31398472,-16.98,5.58,-41.34
1774512341794,0.07182605,0.095768064,9.481039,0.27488935,0.034208454,-0.31764993,-16.8,5.7,-42.059998
1774512341815,-0.02873042,0.36391866,8.738836,0.29443705,-0.02321288,-0.3323107,-16.44,5.8799996,-42.239998
1774512341836,-0.02873042,0.45489833,8.652645,0.10873401,-0.13805555,-0.34208453,-16.5,5.58,-42.239998
1774512341867,-0.047884032,-0.31603462,10.448297,-0.14538592,-0.12095132,-0.33841935,-16.26,5.3399997,-42.0
1774512341887,-0.59855044,-0.4309563,10.366894,-0.1600467,0.12339478,-0.26633725,-16.5,4.7999997,-42.18
1774512341906,-0.59376204,-0.16759412,9.835381,-0.037873644,0.07086037,-0.19792034,-16.92,3.9599998,-42.3
1774512341926,-0.58897364,0.29209262,9.44752,-0.018325957,0.030543262,-0.16737708,-16.92,4.2,-42.84
1774512341946,-0.49799395,0.5746084,9.351752,-0.096516706,0.039095376,-0.1441642,-17.16,4.02,-43.02
1774512341967,-0.272939,0.8714894,9.299079,-0.14049901,0.07819075,-0.09773844,-16.859999,4.14,-42.48
1774512341986,-0.40701428,0.6751649,9.289502,-0.18081611,0.10995574,-0.039095376,-16.619999,4.74,-42.36
1774512342020,-0.40701428,0.5363012,9.605537,-0.19058995,0.13072516,0.04886922,-16.02,5.94,-42.12
1774512342039,-0.25378537,0.4357447,9.983821,-0.14294247,0.13927728,0.1001819,-16.32,5.58,-42.059998
1774512342061,0.31124622,0.48841715,9.701305,0.035430185,0.012217305,0.13927728,-16.8,4.62,-41.879997
1774512342081,0.8523358,0.6512229,9.289502,0.12461651,-0.17348573,0.030543262,-16.859999,4.44,-41.64
1774512342100,1.1348516,0.8475474,8.887277,0.12461651,-0.17348573,0.030543262,-17.64,3.4199998,-41.28
1774512342121,1.3072342,1.0630256,8.619126,-0.22113322,-0.20647246,-0.07086037,-17.4,4.14,-41.46
1774512342142,1.436521,1.1827357,8.781932,-0.42394048,-0.22113322,-0.15027285,-16.8,5.3399997,-41.04
1774512342162,1.2018893,0.9864111,9.423578,-0.50701815,-0.21380283,-0.21013765,-16.98,5.22,-41.52
1774512342182,0.5650316,0.60333884,10.0987425,-0.45448375,-0.17470746,-0.21624629,-16.68,5.64,-41.52
1774512342201,-0.038307227,0.4261679,10.529699,-0.36896262,-0.03176499,-0.18081611,-17.22,5.3399997,-41.64
1774512342222,-0.22984336,0.45968673,10.644621,-0.23823744,0.07452556,-0.16982053,-17.279999,5.7599998,-42.42
1774512342244,-0.1388637,0.79966336,10.295067,-0.039095376,0.07819075,-0.18570304,-17.34,6.2999997,-41.879997
1774512342264,-0.08619126,1.1444284,9.840169,0.07452556,0.06963864,-0.17715092,-17.64,6.42,-41.879997
1774512342283,-0.02873042,1.3790601,9.241618,0.1001819,0.042760566,-0.13561209,-18.0,6.12,-41.52
1774512342303,0.1436521,1.541866,8.863335,0.059864793,0.036651913,-0.09285152,-18.24,6.0,-41.34
1774512342323,0.30645782,1.6998832,8.595184,-0.036651913,0.059864793,-0.05497787,-18.0,5.7599998,-41.399998
1774512342343,0.2633622,1.5275006,8.585608,-0.1001819,0.09040806,-0.014660766,-17.94,5.7599998,-41.219997
1774512342364,0.12928689,1.3072342,8.882488,-0.07452556,0.07086037,0.02443461,-17.76,6.18,-41.46
1774512342384,0.19632454,1.6280571,9.035717,-0.010995574,0.02687807,0.040317107,-18.66,5.04,-41.76
1774512342404,0.090979666,1.4508862,8.853758,-0.042760566,0.039095376,0.0036651916,-19.08,4.92,-42.0
1774512342425,-0.01436521,1.7046716,9.188946,-0.18570304,0.034208454,0.07819075,-19.02,5.46,-42.48
1774512342445,-0.01436521,1.7046716,9.188946,-0.27488935,0.009773844,0.09407325,-18.72,5.7599998,-42.84
1774512342466,0.25378537,1.6472107,10.812215,-0.24190263,0.008552114,0.105068825,-17.94,6.96,-42.78
1774512342487,0.21547815,1.4891934,11.224017,-0.07452556,0.059864793,0.09407325,-17.52,7.5,-42.0
1774512342506,-0.0047884034,1.3215994,11.319786,0.13072516,0.07086037,0.103847094,-17.22,7.14,-41.94
1774512342528,-0.2633622,1.2976574,11.109096,0.3640757,0.061086524,0.16737708,-17.46,7.3199997,-41.82
1774512342548,-0.10055647,1.5466543,10.730812,0.54244834,0.061086524,0.24923302,-17.34,7.56,-41.7
1774512342569,0.0047884034,2.006341,10.036493,0.6267477,0.043982297,0.31398472,-17.039999,7.7999997,-42.18
1774512342590,0.45489833,1.958457,9.648633,0.5155703,-0.0842994,0.32986724,-16.98,7.56,-42.059998
1774512342611,0.6464345,1.4269443,10.716447,0.2321288,-0.17715092,0.3811799,-16.619999,7.14,-42.0
1774512342632,1.115698,0.90021986,11.587936,0.07819075,-0.2284636,0.3885103,-16.32,6.7799997,-41.879997
1774512342653,1.3551182,0.2681506,12.378023,0.04642576,-0.31764993,0.28344148,-16.5,6.18,-42.0
1774512342674,0.90021986,-0.81402856,12.291832,0.040317107,-0.30909783,0.14782938,-16.68,6.3599997,-42.6
1774512342694,0.521936,-2.15957,12.765883,-0.0036651916,-0.26511553,0.096516706,-16.859999,6.7799997,-42.66
1774512342715,0.5602432,-2.2266076,12.41633,0.19181168,-0.19547687,0.08552113,-18.0,5.7599998,-42.36
1774512342737,0.45968673,-2.27928,11.142614,0.5155703,-0.19547687,0.04642576,-17.94,5.46,-41.76
1774512342757,0.01436521,-2.054225,9.883265,0.7684685,-0.065973446,0.07574729,-17.58,5.1,-41.579998
1774512342777,-0.60812724,-1.7812861,8.255207,0.6976081,0.037873644,0.10995574,-17.82,4.74,-42.0
1774512342797,-1.0630256,-1.7142484,7.599196,0.3652974,0.04642576,0.19058995,-16.8,5.22,-42.0
1774512342817,-1.2258313,-1.5993267,7.9487495,-0.002443461,0.05131268,0.23945917,-17.1,4.44,-42.36
1774512342839,-1.2066777,-1.5753847,8.791509,-0.2125811,0.12950343,0.267559,-17.58,3.84,-42.42
1774512342861,-1.1109096,-1.7621324,9.217676,-0.1160644,0.17837265,0.28710666,-17.16,4.14,-42.18
1774512342881,-0.5315128,-1.4652514,8.66701,-0.073303826,-0.05375614,0.24190263,-17.64,3.6599998,-42.239998
1774512342901,-0.14844051,-1.2689269,8.561666,-0.073303826,-0.05375614,0.24190263,-17.64,3.84,-41.579998
1774512342921,0.25857377,-1.0821792,8.892065,-0.14905111,-0.12950343,0.17470746,-17.22,4.02,-41.28
1774512342943,0.4309563,-0.9959879,9.26556,-0.105068825,0.061086524,0.19303341,-17.46,3.78,-41.64
1774512342964,0.4357447,-0.93852705,9.279925,-0.06352998,0.09773844,0.25778514,-17.52,4.08,-41.64
1774512342986,-0.06703765,-0.8714894,9.466674,0.007330383,0.096516706,0.267559,-16.38,5.1,-42.48
1774512343006,-0.06703765,-0.8714894,9.466674,0.081855945,0.0036651916,0.2724459,-16.8,5.3399997,-43.44
1774512343026,-0.38307226,-0.8619126,8.020576,0.035430185,-0.1160644,0.267559,-16.619999,5.22,-43.5
1774512343048,-0.12928689,-0.5554548,9.184157,-0.08552113,-0.10751228,0.23579398,-16.619999,5.4,-43.86
1774512343068,-0.4213795,-0.7086837,9.308656,-0.19547687,0.13194689,0.21868975,-17.22,5.16,-43.14
1774512343089,-0.35434186,-0.80445176,9.624691,-0.22479841,0.13316862,0.2125811,-16.859999,5.52,-42.66
1774512343109,-0.21068975,-0.7565677,9.720459,-0.22602014,0.057421334,0.18692477,-16.5,6.24,-42.3
1774512343128,0.07182605,-0.35434186,9.9550905,-0.2003638,-0.02076942,0.1563815,-16.14,6.6,-42.42
1774512343149,0.34955344,-0.038307227,10.093954,-0.15271631,0.034208454,0.118507855,-16.199999,6.42,-42.84
1774512343183,0.40222588,0.14844051,10.079589,-0.1441642,0.31398472,0.008552114,-17.16,6.06,-43.14
1774512343203,0.15801731,0.272939,10.223241,-0.10262536,0.36651915,-0.07086037,-16.92,6.48,-43.14
1774512343224,-0.095768064,0.24420857,10.031705,0.039095376,0.32375857,-0.14172074,-16.92,6.7799997,-42.719997
1774512343243,-0.095768064,0.24420857,10.031705,0.22235495,0.16126843,-0.19181168,-16.38,6.42,-42.96
1774512343264,-0.25857377,0.30645782,9.653421,0.3494149,0.02321288,-0.21991149,-15.78,6.66,-42.96
1774512343283,-0.21068975,0.58897364,9.346964,0.35185838,-0.05009095,-0.21013765,-16.08,5.94,-42.719997
1774512343304,-0.14844051,0.6607997,8.6574335,0.111177474,-0.17348573,-0.19303341,-15.719999,5.7,-43.68
1774512343323,0.2777274,0.11971009,8.968679,-0.02321288,-0.1441642,-0.19058995,-15.54,6.06,-43.739998
1774512343344,1.7621324,-0.23942018,11.137826,0.111177474,-0.021991149,-0.28221974,-15.839999,5.4,-43.559998
1774512343364,1.8626889,0.4165911,9.260772,0.5546656,0.15271631,-0.42760566,-15.42,5.7599998,-43.62
1774512343383,1.4748282,0.7230489,7.9822683,0.7281514,-0.02076942,-0.49357912,-15.54,5.46,-44.04
1774512343403,1.4748282,0.7230489,7.9822683,0.42394048,0.073303826,-0.39095375,-15.599999,4.8599997,-44.52
1774512343423,0.8762778,1.6184803,8.130709,-0.37873647,0.11728613,-0.3286455,-15.36,4.8599997,-44.579998
1774512343443,-0.076614454,0.8283938,10.371682,-0.9639453,0.06841691,-0.34330627,-15.179999,4.2599998,-44.399998
1774512343464,-0.79966336,0.7038953,11.75553,-0.9297369,0.27000242,-0.2687807,-16.26,3.12,-43.86
1774512343485,-1.1348516,0.5793968,11.789049,-0.57910025,0.3005457,-0.26267207,-16.74,2.8799999,-43.2
1774512343505,-0.90979666,0.8810662,10.778696,-0.13316862,0.1282817,-0.27000242,-17.699999,2.3999999,-44.16
1774512343526,-0.5267244,1.1348516,9.921572,0.1685988,-0.062308256,-0.2761111,-18.72,2.34,-44.94
1774512343547,0.1388637,1.412579,9.050082,0.30298916,-0.052534413,-0.25045475,-18.119999,3.48,-45.18
1774512343568,0.62249243,1.4987702,8.413225,0.32986724,-0.040317107,-0.24923302,-18.42,3.84,-45.96
1774512343588,0.8379706,1.4460979,8.169016,0.33108896,-0.0036651916,-0.21502456,-17.88,4.44,-45.719997
1774512343609,1.0582372,1.3694834,7.9583263,0.3567453,0.12339478,-0.17470746,-17.52,4.02,-45.0
1774512343629,0.7230489,1.4221559,8.015787,0.25411993,0.13805555,-0.18570304,-17.58,3.3,-44.82
1774512343650,0.20590134,1.3120226,8.049306,0.119729586,0.08674286,-0.19547687,-17.88,2.7,-44.34
1774512343670,-0.04309563,1.4939818,8.173804,-0.057421334,0.058643065,-0.13561209,-17.279999,2.34,-43.559998
1774512343691,-0.06703765,1.5897499,8.293514,-0.25167647,0.02076942,-0.105068825,-16.619999,2.52,-44.04
1774512343712,-0.20590134,1.6711528,8.882488,-0.4288274,0.0061086523,-0.08307768,-13.799999,3.24,-44.399998
1774512343733,-0.21068975,1.7621324,9.653421,-0.48502702,-0.07452556,-0.039095376,-13.799999,3.24,-44.399998
1774512343753,-0.047884032,1.8722657,10.290278,-0.37507126,-0.1282817,-0.0061086523,-13.86,3.3,-44.94
1774512343774,0.06703765,2.111686,10.505757,-0.26389378,-0.12339478,0.017104227,-13.799999,4.56,-44.579998
1774512343796,0.11971009,2.0685902,10.860099,-0.19547687,-0.07941248,0.0,-14.7,4.08,-44.46
1774512343817,0.08140286,2.1164744,11.21444,-0.112399206,-0.04153884,-0.02687807,-14.82,4.02,-44.219997
1774512343838,0.1340753,2.183512,11.525687,-0.02565634,-0.014660766,-0.009773844,-14.34,4.56,-44.28
1774512343859,-0.019153614,2.0733786,11.444284,0.06841691,-0.061086524,0.007330383,-15.059999,3.8999999,-44.16
1774512343880,-0.20111294,1.4508862,11.688493,0.03176499,-0.12705997,0.22479841,-14.46,4.3199997,-44.16
1774512343901,-0.110133275,1.0869676,12.052411,0.03176499,-0.12705997,0.22479841,-14.28,4.8599997,-44.399998
1774512343923,0.110133275,0.5315128,12.248735,0.032986723,-0.1282817,0.2846632,-14.219999,4.5,-44.28
1774512343944,0.21068975,-0.21547815,12.196063,0.040317107,-0.11728613,0.28221974,-14.04,4.7999997,-44.1
1774512343965,0.22505496,-1.3215994,12.066776,0.16126843,-0.13316862,0.2687807,-13.799999,4.98,-43.62
1774512343985,0.33039984,-1.7238252,10.888829,0.4251622,-0.14538592,0.20769419,-13.679999,4.44,-43.2
1774512344005,-0.11971009,-1.8195933,9.351752,0.66339964,-0.08674286,0.17837265,-14.16,4.3199997,-43.02
1774512344026,-0.46447513,-1.7908629,8.374918,0.5558874,-0.034208454,0.1966986,-13.799999,4.2599998,-43.02
1774512344047,-0.7134721,-1.7429788,8.1163435,0.30665436,-0.013439035,0.22724187,-14.16,3.54,-43.2
1774512344069,-0.78529817,-1.7908629,8.523358,0.09407325,-0.002443461,0.24801129,-14.4,3.3,-43.5
1774512344090,-0.94810385,-1.8387469,9.14585,-0.02687807,0.07574729,0.25900686,-13.98,3.06,-43.62
1774512344111,-1.0342951,-1.8626889,9.107543,0.0061086523,0.12705997,0.2602286,-14.46,2.1,-44.34
1774512344133,-0.866701,-1.6136919,8.839393,0.09407325,0.095294975,0.25289822,-13.98,2.46,-44.16
1774512344155,-0.51235914,-1.2545617,8.355764,0.11484267,0.021991149,0.21991149,-13.62,2.3999999,-43.62
1774512344175,-0.11492168,-0.8475474,8.465898,0.004886922,-0.02687807,0.17348573,-13.08,2.8799999,-42.899998
1774512344197,0.25857377,-0.61770403,8.805874,-0.10140363,0.017104227,0.12950343,-13.5,2.1599998,-42.96
1774512344218,0.2633622,-0.5315128,9.074024,-0.12095132,0.058643065,0.12950343,-13.98,1.74,-43.079998
1774512344239,-0.076614454,-0.51714754,8.796297,-0.13683382,0.10751228,0.18448131,-14.16,1.62,-43.079998
1774512344261,-0.34955344,-0.5602432,8.451532,-0.19181168,0.14905111,0.2321288,-14.28,1.62,-43.079998
1774512344281,-0.33518824,-0.46926352,9.519346,-0.119729586,0.13683382,0.2125811,-14.46,2.04,-43.379997
1774512344301,-0.91937345,-0.61291564,9.519346,-0.14172074,0.1441642,0.20525073,-14.34,1.92,-43.62
1774512344322,-0.7757214,-0.4261679,9.500193,-0.19792034,0.14782938,0.16982053,-14.46,2.22,-43.92
1774512344343,-0.6368576,-0.33518824,9.543288,-0.22357668,0.1563815,0.12705997,-14.5199995,2.04,-44.16
1774512344363,-0.6368576,-0.33518824,9.543288,-0.22479841,0.09896017,0.09407325,-14.5199995,1.92,-43.86
1774512344389,-0.22026655,-0.2681506,9.9790325,-0.23823744,0.12583824,0.058643065,-14.4,2.7,-43.559998
1774512344409,-0.15801731,-0.37349546,10.151415,-0.21135938,0.2003638,0.004886922,-13.92,3.0,-43.32
1774512344429,-0.07182605,-0.37828386,10.395624,-0.172264,0.24678956,-0.052534413,-13.98,3.1799998,-43.32
1774512344449,0.0047884034,-0.25857377,10.175357,-0.073303826,0.18692477,-0.12339478,-13.799999,3.0,-43.2
1774512344469,0.009576807,-0.095768064,10.304645,0.029321533,0.057421334,-0.21502456,-13.62,3.06,-42.899998
1774512344489,-0.1340753,0.10055647,10.28549,0.15760323,-0.007330383,-0.2883284,-13.2,3.54,-43.5
1774512344510,-0.33039984,0.46447513,9.77792,0.22602014,-0.06963864,-0.32986724,-12.54,4.08,-43.32
1774512344531,-0.36870706,0.38307226,9.983821,0.1160644,-0.16615535,-0.35918877,-12.54,4.2599998,-43.559998
1774512344551,-0.35434186,-0.21068975,11.109096,-0.06841691,-0.06841691,-0.312763,-12.24,3.6,-43.379997
1774512344571,0.33039984,-0.22505496,11.544841,0.15149458,0.06719518,-0.2443461,-12.54,2.76,-43.02
1774512344590,0.94810385,0.33997664,9.921572,0.60231316,-0.0061086523,-0.28710666,-12.54,2.76,-43.02
1774512344611,1.3024458,0.8762778,7.833828,0.9407325,-0.27122417,-0.4202753,-11.82,3.24,-43.2
1774512344631,1.4460979,1.5131354,6.7851677,0.86620694,-0.39828414,-0.5143485,-12.12,2.76,-43.559998
1774512344650,1.8531121,1.8291701,7.2113357,0.4092797,-0.37873647,-0.48380527,-12.48,2.04,-44.1
1774512344670,1.7238252,1.934515,8.169016,-0.32620203,-0.12339478,-0.4728097,-12.36,1.5,-43.92
1774512344691,-0.01436521,0.5793968,9.744401,-0.6805039,-0.013439035,-0.5546656,-12.42,0.59999996,-43.86
1774512344712,-1.3694834,-0.21068975,10.817003,-0.7305948,0.14294247,-0.37873647,-12.24,1.02,-44.04
1774512344732,-1.8770541,-0.11971009,11.118672,-0.54244834,0.2003638,-0.2932153,-12.24,1.02,-44.04
1774512344752,-1.3599066,0.18195933,10.328587,-0.064751714,0.05009095,-0.21013765,-12.54,1.4399999,-44.04
1774512344772,-0.6799533,0.8379706,9.155427,0.21135938,-0.10629055,-0.20525073,-12.66,1.3199999,-43.8
1774512344792,-0.095768064,1.4221559,8.1642275,0.25289822,-0.1160644,-0.21746802,-12.9,1.0799999,-43.559998
1774512344813,0.18195933,1.6280571,7.608773,0.14782938,-0.073303826,-0.21746802,-12.42,0.96,-43.2
1774512344833,0.545878,1.6041151,7.493851,-0.02443461,-0.056199603,-0.1563815,-12.54,0.24,-43.26
1774512344853,0.80924016,1.5466543,7.848193,-0.20647246,-0.064751714,-0.11484267,-12.36,0.12,-43.14
1774512344874,0.6943185,1.3838485,8.307879,-0.37507126,-0.09896017,-0.1001819,-11.82,0.48,-43.02
1774512344895,0.48841715,1.316811,9.006987,-0.5204572,-0.15882497,-0.07574729,-11.88,0.9,-43.079998
1774512344916,0.16280572,1.1444284,9.873688,-0.54611355,-0.18325958,-0.04886922,-11.759999,1.5,-42.66
1774512344936,0.07182605,1.0295067,10.577583,-0.5216789,-0.15027285,0.010995574,-11.94,1.5,-42.719997
1774512344958,-0.033518825,1.067814,11.118672,-0.41050145,-0.095294975,0.06352998,-12.54,1.26,-42.48
1774512344980,-0.11971009,1.2449849,11.166556,-0.030543262,-0.056199603,0.17837265,-13.0199995,1.0799999,-42.239998
1774512344999,-0.023942016,1.5993267,10.91756,0.1001819,-0.036651913,0.20769419,-13.08,1.74,-42.6
1774512345020,-0.038307227,1.9680338,10.539276,0.15882497,-0.02565634,0.26267207,-12.96,2.82,-42.3
1774512345040,-0.02873042,2.1212628,10.251971,0.17592919,-0.07696902,0.3286455,-12.54,3.6599998,-42.36
1774512345061,0.36391866,2.087744,10.34774,0.18936823,-0.09773844,0.35308012,-12.36,4.02,-42.78
1774512345082,0.7182605,2.207454,10.524911,0.15760323,-0.07452556,0.32986724,-12.48,3.48,-42.239998
1774512345102,0.5793968,0.8331822,11.046846,0.14538592,-0.089186326,0.3567453,-12.3,2.9399998,-42.3
1774512345123,0.7517793,0.44532153,11.15698,0.14905111,-0.10995574,0.3555236,-12.48,2.1599998,-42.66
1774512345143,0.866701,0.11492168,11.027693,0.095294975,-0.1441642,0.31642818,-12.719999,1.56,-42.059998
1774512345164,0.5315128,-1.0869676,11.592725,-0.096516706,-0.11362094,0.28710666,-12.599999,1.26,-42.239998
1774512345185,0.31603462,-1.9009962,12.368446,-0.19547687,0.008552114,0.30543262,-13.139999,1.02,-41.82
1774512345206,0.45010993,-2.2026656,12.143391,0.07086037,-0.02687807,0.2919936,-13.559999,0.78,-41.7
1774512345226,0.50757074,-2.231396,10.91756,0.4361578,-0.07574729,0.24556783,-13.86,0.35999998,-41.7
1774512345247,0.29688102,-1.9728222,9.437943,0.66828656,-0.05009095,0.19425514,-13.679999,0.65999997,-41.52
1774512345267,0.095768064,-1.733402,8.135497,0.66339964,-0.052534413,0.16493362,-13.74,0.24,-41.82
1774512345288,-0.10055647,-1.4748282,7.6375036,0.43371433,-0.017104227,0.14782938,-13.44,0.24,-41.76
1774512345308,-0.18674773,-1.3790601,7.7907324,0.09162979,0.073303826,0.13439035,-13.0199995,0.35999998,-41.7
1774512345329,-0.29688102,-1.2066777,8.499416,-0.118507855,0.13439035,0.096516706,-13.5,-0.17999999,-41.76
1774512345349,-0.35434186,-1.2785037,8.676587,-0.14294247,0.12217305,0.064751714,-13.0199995,0.12,-41.399998
1774512345369,-0.272939,-1.1827357,9.054871,-0.14905111,0.09162979,0.056199603,-12.78,0.17999999,-41.7
1774512345388,-0.34955344,-1.2018893,9.083601,-0.14905111,0.095294975,0.052534413,-12.42,0.65999997,-41.879997
1774512345409,-0.25378537,-1.2018893,9.251195,-0.17470746,0.065973446,0.081855945,-11.639999,0.96,-41.52
1774512345429,-0.1388637,-1.0486604,9.773131,-0.16615535,0.10995574,0.09773844,-11.639999,0.9,-41.64
1774512345450,-0.40222588,-1.0965444,9.016563,-0.089186326,0.057421334,0.09896017,-11.5199995,0.71999997,-41.399998
1774512345470,-0.641646,-1.0247183,8.90643,-0.1282817,-0.062308256,0.14660765,-11.46,0.53999996,-40.739998
1774512345498,-0.46926352,-0.7086837,9.323022,-0.24312437,0.06719518,0.1966986,-11.82,0.42,-40.739998
1774512345518,-0.7757214,-0.770933,9.289502,-0.25778514,0.1001819,0.24312437,-11.82,0.84,-40.559998
1774512345538,-0.7278373,-0.7565677,9.102755,-0.27488935,0.07574729,0.26267207,-11.82,1.3199999,-41.1
1774512345559,-0.60333884,-0.7230489,8.983045,-0.35308012,0.05009095,0.26267207,-12.0,1.3199999,-40.86
1774512345579,-0.2825158,-0.6991069,9.035717,-0.4605924,0.058643065,0.23457226,-12.179999,1.3199999,-41.399998
1774512345600,-0.16759412,-0.7086837,9.56723,-0.46792278,0.0720821,0.17837265,-12.179999,1.62,-41.28
1774512345620,0.1436521,-0.60333884,10.093954,-0.43493605,0.096516706,0.112399206,-11.82,1.8,-40.92
1774512345650,0.30645782,-0.8571242,10.6877165,-0.41172317,0.07819075,0.058643065,-11.759999,2.7,-40.98
1774512345671,0.51235914,-0.7661445,11.21444,-0.28588495,0.111177474,-0.02321288,-11.759999,2.46,-40.86
1774512345691,0.641646,-0.6703765,11.195287,-0.02443461,0.12950343,-0.10995574,-12.059999,2.58,-41.04
1774512345711,0.6703765,-0.320823,10.702082,0.27855456,0.081855945,-0.19058995,-12.179999,2.3999999,-41.16
1774512345731,0.6991069,0.21547815,9.792285,0.5338962,0.02321288,-0.2687807,-12.059999,2.8799999,-41.04
1774512345752,0.5554548,0.25378537,8.963891,0.5571091,-0.062308256,-0.35430184,-11.94,3.24,-41.04
1774512345772,0.8858546,-0.5602432,10.184934,0.37751472,-0.095294975,-0.3811799,-12.059999,2.46,-41.28
1774512345793,1.1444284,-0.46447513,10.682928,0.41538838,0.105068825,-0.4202753,-12.0,2.1,-40.98
1774512345813,0.92895025,-0.17238252,9.251195,0.7476991,0.12705997,-0.51923543,-11.639999,1.14,-41.34
1774512345834,0.82360536,0.5506664,7.6614456,0.8258898,0.037873644,-0.52656585,-11.5199995,0.17999999,-41.52
1774512345855,0.8619126,0.842759,7.3166804,0.5180137,0.014660766,-0.48747048,-11.219999,-0.35999998,-41.28
1774512345875,1.1204864,1.0869676,7.6853876,-0.056199603,0.12095132,-0.38606682,-10.26,-0.35999998,-41.82
1774512345896,0.6847417,0.91937345,9.294291,-0.65240407,0.16126843,-0.37995818,-10.2,-0.48,-41.64
1774512345917,-0.33518824,0.39264908,10.539276,-0.61453044,0.312763,-0.27366763,-10.44,-0.59999996,-41.46
1774512345938,-1.1204864,0.31603462,11.233594,-0.61453044,0.312763,-0.27366763,-10.44,0.06,-41.579998
1774512345958,-1.364695,0.4261679,10.745177,0.204029,0.14782938,-0.30176744,-10.74,0.0,-41.16
1774512345979,-1.1587936,0.63206923,9.299079,0.23823744,0.029321533,-0.3115413,-10.44,0.59999996,-40.739998
1774512345999,-0.7374141,0.81402856,8.264784,0.10629055,-0.04642576,-0.27366763,-9.54,1.26,-41.04
1774512346019,-0.37349546,1.0582372,8.00621,-0.030543262,-0.10262536,-0.2125811,-9.059999,0.84,-40.62
1774512346040,-0.14844051,1.0582372,8.135497,-0.12095132,-0.09040806,-0.13683382,-8.88,0.53999996,-40.92
1774512346060,0.076614454,0.9768343,8.470686,-0.18936823,-0.034208454,-0.06719518,-8.82,0.17999999,-41.28
1774512346080,0.15322891,0.8810662,8.791509,-0.22968534,-0.042760566,-0.010995574,-9.36,-0.53999996,-41.34
1774512346101,0.30166942,0.94810385,8.983045,-0.25778514,-0.06352998,0.007330383,-9.9,-0.78,-41.28
1774512346121,0.4261679,1.0773908,9.289502,-0.2602286,-0.10140363,0.018325957,-9.78,-0.24,-40.92
1774512346141,0.521936,1.2401965,9.528923,-0.22724187,-0.16126843,0.036651913,-9.48,0.24,-40.739998
1774512346161,0.7038953,1.5179238,9.835381,-0.16615535,-0.14782938,0.030543262,-9.059999,0.96,-40.379997
1774512346181,0.5650316,1.8674773,10.601525,-0.037873644,-0.095294975,-0.02565634,-8.76,1.1999999,-40.32
1774512346201,0.15322891,1.7381904,10.524911,0.07574729,-0.04153884,-0.05009095,-9.059999,0.84,-40.44
1774512346222,-0.05267244,1.7142484,10.424355,0.111177474,-0.014660766,-0.032986723,-9.48,0.17999999,-40.2
1774512346241,-0.16759412,1.6759412,10.697293,0.09040806,-0.018325957,0.019547688,-9.599999,0.17999999,-40.379997
1774512346263,-0.14844051,1.8148049,10.850522,0.07696902,-0.028099801,0.07941248,-9.179999,1.0799999,-40.5
1774512346282,-0.14844051,1.8148049,10.850522,0.030543262,-0.10873401,0.13927728,-8.94,1.38,-39.96
1774512346303,-0.076614454,0.91937345,11.693281,-0.040317107,-0.17592919,0.23579398,-9.0,1.5,-40.26
1774512346324,0.22505496,0.39264908,12.162544,-0.05131268,-0.22113322,0.27977628,-9.3,0.84,-40.079998
1774512346346,0.45010993,-0.038307227,12.210428,0.002443461,-0.24312437,0.26633725,-9.9,-0.29999998,-39.719997
1774512346367,0.29688102,-0.89543146,11.918336,0.008552114,-0.22602014,0.22602014,-9.84,-0.42,-39.84
1774512346387,0.2777274,-1.6903064,12.028469,-0.015882496,-0.20525073,0.24678956,-9.3,-0.06,-39.54
1774512346409,0.58897364,-1.7621324,11.51611,0.17104226,-0.23701571,0.20891592,-9.179999,0.29999998,-39.239998
1774512346430,0.5602432,-1.7669208,10.275913,0.39828414,-0.26389378,0.14660765,-9.0,1.0799999,-39.059998
1774512346451,0.29209262,-1.8195933,9.246407,0.5558874,-0.16126843,0.14172074,-9.42,0.78,-39.0
1774512346472,-0.05746084,-1.757344,8.173804,0.5522222,-0.042760566,0.12339478,-9.42,0.96,-38.579998
1774512346493,-0.34955344,-1.7477672,7.6853876,0.38240165,-0.040317107,0.14660765,-9.78,0.59999996,-38.7
1774512346515,-0.48841715,-1.8387469,7.690176,0.12339478,-0.06841691,0.16493362,-10.08,-0.29999998,-38.46
1774512346535,-0.47884035,-1.8914193,8.408437,-0.13927728,-0.07086037,0.172264,-10.2,-0.35999998,-37.98
1774512346556,-0.5410896,-1.8770541,8.90643,-0.22479841,-0.009773844,0.15515977,-10.679999,-0.96,-37.86
1774512346577,-0.7182605,-2.0590134,9.131485,-0.16737708,0.042760566,0.16126843,-10.86,-0.71999997,-37.62
1774512346597,-0.6703765,-1.9009962,8.834604,-0.119729586,0.081855945,0.19792034,-10.5,-0.35999998,-37.2
1774512346619,-0.41180268,-1.6998832,8.762778,-0.22357668,0.089186326,0.23701571,-10.679999,-0.59999996,-37.92
1774512346641,-0.14844051,-1.508347,8.796297,-0.29565877,0.10262536,0.25778514,-10.5,-0.24,-37.98
1774512346661,-0.11492168,-1.2497733,9.241618,-0.33108896,0.18325958,0.267559,-10.38,-0.24,-37.68
1774512346682,-0.2825158,-1.091756,9.792285,-0.23579398,0.22113322,0.27855456,-10.5,0.17999999,-37.92
1774512346702,-0.81881696,-1.0199299,10.232818,-0.07574729,0.20280726,0.29443705,-10.139999,0.71999997,-37.32
1774512346723,-0.7565677,-0.93373865,9.672575,0.1001819,0.10140363,0.31398472,-9.9,1.02,-37.079998
1774512346746,-0.24899697,-0.5410896,9.294291,0.18203785,-0.095294975,0.29077184,-10.98,0.78,-36.66
1774512346767,-0.29209262,-0.6751649,9.500193,0.119729586,0.07452556,0.21502456,-11.5199995,0.71999997,-37.02
1774512346787,-0.33997664,-0.7565677,9.337387,0.02565634,0.19547687,0.17104226,-11.34,0.78,-36.899998
1774512346807,-0.39264908,-0.94810385,9.323022,-0.010995574,0.12095132,0.14905111,-11.28,0.96,-37.559998
1774512346827,-0.1388637,-0.90021986,9.294291,-0.05375614,0.037873644,0.15149458,-9.66,2.04,-38.1
1774512346848,0.31603462,-0.8523358,9.390059,-0.10629055,-0.02076942,0.11728613,-9.12,1.74,-38.04
1774512346884,0.5315128,-0.7565677,9.950302,-0.13316862,-0.0012217305,-0.012217305,-9.24,1.5,-37.739998
1774512346905,0.41180268,-0.8810662,10.084377,-0.06719518,0.036651913,-0.105068825,-9.599999,1.14,-37.86
1774512346925,0.30645782,-0.8714894,10.093954,0.073303826,0.009773844,-0.21013765,-9.3,1.68,-37.62
1774512346945,0.25857377,-0.5602432,9.816227,0.30176744,-0.07574729,-0.3359759,-9.3,1.62,-37.739998
1774512346966,0.20111294,-0.01436521,9.217676,0.43004912,-0.14905111,-0.39584067,-9.3,2.1,-37.92
1774512346986,0.6560113,0.023942016,9.093178,0.3481932,-0.20158553,-0.44104472,-9.12,2.22,-37.68
1774512347007,1.6472107,-0.01436521,9.725247,0.25045475,-0.17348573,-0.51068336,-9.3,1.4399999,-37.2
1774512347027,1.8962077,0.48841715,9.481039,0.36163223,-0.073303826,-0.6206391,-10.0199995,0.59999996,-36.78
1774512347047,1.9776106,0.5410896,8.418014,0.42149702,-0.056199603,-0.6291912,-10.2,0.42,-36.36
1774512347068,1.4796166,1.13964,8.178593,0.10751228,-0.05009095,-0.5705481,-10.679999,-0.59999996,-35.579998
1774512347088,0.94810385,0.9528923,9.198523,-0.52778757,0.018325957,-0.43004912,-10.679999,-0.84,-35.82
1774512347107,0.11492168,0.48841715,10.922348,-0.8185594,0.13194689,-0.3213151,-10.08,-0.78,-36.12
1774512347128,-0.78050977,0.19153613,11.774684,-0.7367035,0.27855456,-0.24312437,-9.66,-1.4399999,-36.6
1774512347148,-1.4748282,0.10055647,11.659762,-0.3213151,0.20769419,-0.22724187,-8.7,-0.48,-37.44
1774512347170,-1.364695,0.5650316,10.539276,0.13316862,0.028099801,-0.21013765,-8.58,-0.42,-37.5
1774512347190,-0.81881696,1.0773908,9.313444,0.37018433,-0.06963864,-0.22724187,-7.8599997,0.42,-37.14
1774512347211,-0.19632454,1.2785037,8.403648,0.3848451,-0.056199603,-0.17959438,-7.7999997,0.12,-36.18
1774512347232,0.49799395,1.4030021,8.1642275,0.30176744,-0.05131268,-0.15149458,-7.68,0.06,-36.3
1774512347252,0.91458505,1.1971009,8.09719,0.21135938,0.012217305,-0.14172074,-8.04,-0.53999996,-37.079998
1774512347271,0.8475474,1.0151415,8.159439,0.14782938,0.039095376,-0.13561209,-8.22,-1.1999999,-37.38
1774512347292,0.7134721,0.93373865,8.020576,0.081855945,0.012217305,-0.09773844,-8.4,-1.1999999,-37.62
1774512347312,0.6560113,1.0247183,8.111555,-0.04642576,-0.043982297,-0.06841691,-7.9199996,-0.59999996,-37.559998
1774512347333,0.521936,1.1444284,8.528147,-0.20769419,-0.07696902,-0.04520403,-7.7999997,-0.48,-36.899998
1774512347352,0.4261679,1.3120226,9.141062,-0.36896262,-0.0720821,-0.019547688,-7.5,-0.06,-36.54
1774512347373,0.4357447,1.436521,9.9550905,-0.43982297,-0.103847094,-0.0012217305,-7.74,0.0,-36.18
1774512347393,0.37349546,1.4891934,10.845734,-0.40561453,-0.13194689,0.017104227,-8.5199995,-1.26,-35.28
1774512347413,0.2633622,1.5849615,11.362882,-0.22479841,-0.07574729,0.02443461,-8.34,-0.9,-35.28
1774512347435,0.062249243,1.5945383,11.070788,0.04520403,-0.029321533,0.013439035,-8.58,-0.78,-35.34
1774512347456,0.047884032,1.6711528,10.654198,0.21135938,-0.0012217305,0.043982297,-8.34,-0.35999998,-35.64
1774512347478,0.16280572,1.8435353,10.156203,0.2724459,0.021991149,0.105068825,-7.56,0.65999997,-35.82
1774512347500,0.31124622,1.9728222,9.873688,0.02687807,-0.02565634,0.21380283,-7.44,0.84,-35.219997
1774512347520,0.41180268,1.5562311,10.28549,-0.1282817,-0.07452556,0.23335053,-6.96,1.02,-34.98
1774512347542,1.2354081,0.58897364,11.9614315,-0.18325958,-0.11362094,0.20525073,-6.96,0.53999996,-34.26
1774512347562,1.4030021,0.32561144,12.248735,-0.08307768,-0.16982053,0.095294975,-6.8999996,0.53999996,-34.739998
1774512347582,0.9576807,-0.5506664,12.320562,-0.008552114,-0.17104226,0.0012217305,-7.44,-0.29999998,-34.5
1774512347602,0.521936,-1.5131354,12.545617,0.0061086523,-0.02076942,0.004886922,-7.74,-0.29999998,-34.32
1774512347623,0.46926352,-1.7669208,12.143391,0.2321288,0.05009095,0.021991149,-7.8599997,0.29999998,-34.92
1774512347644,0.320823,-1.9871874,10.898406,0.5412266,-0.02443461,0.004886922,-7.74,0.78,-34.559998
1774512347665,0.17238252,-2.0733786,9.739613,0.66950834,-0.064751714,0.0,-7.5,1.26,-34.739998
1774512347685,0.0,-1.9728222,8.7053175,0.63041294,-0.06719518,-0.010995574,-8.04,0.42,-34.86
1774512347707,-0.038307227,-1.7621324,7.97748,0.5363397,-0.12095132,-0.047647487,-7.56,0.0,-34.079998
1774512347728,-0.01436521,-1.7525556,7.8865004,0.35796702,-0.11484267,-0.09162979,-7.9199996,-0.42,-33.84
1774512347749,-0.047884032,-1.685518,8.135497,0.12095132,0.002443461,-0.09407325,-7.3799996,-0.17999999,-33.6
1774512347771,-0.22026655,-1.5370775,8.379706,0.009773844,0.05375614,-0.07819075,-7.3199997,0.35999998,-33.239998
1774512347792,-0.33039984,-1.5179238,8.365341,0.02321288,0.034208454,-0.043982297,-7.44,-0.24,-32.94
1774512347811,-0.320823,-1.5562311,8.24563,-0.03176499,0.0036651916,-0.02565634,-7.5,-0.35999998,-32.88
1774512347832,-0.21068975,-1.4891934,8.441956,-0.13683382,-0.032986723,-0.017104227,-7.02,-0.24,-33.0
1774512347853,-0.10534488,-1.5179238,8.734048,-0.23090707,-0.02321288,0.014660766,-6.96,-0.48,-33.3
1774512347873,0.009576807,-1.4460979,9.078813,-0.3359759,0.05009095,0.06841691,-6.7799997,0.06,-33.6
1774512347894,0.08619126,-1.2162545,9.323022,-0.35796702,0.057421334,0.09773844,-7.14,-0.06,-33.48
1774512347916,-0.11971009,-1.2162545,9.615114,-0.3115413,0.012217305,0.12950343,-7.2599998,0.42,-33.54
1774512347936,-0.272939,-1.0630256,9.624691,-0.2883284,0.018325957,0.19181168,-7.08,0.84,-33.36
1774512347962,-0.16280572,-0.7182605,9.835381,-0.2003638,0.034208454,0.18448131,-6.72,1.1999999,-33.48
1774512347982,-0.47884035,-0.78050977,9.581595,-0.23823744,0.172264,0.15393804,-6.66,1.68,-33.36
1774512348003,-0.34955344,-0.7757214,9.576807,-0.24801129,0.09407325,0.16126843,-7.08,1.4399999,-33.3
1774512348024,-0.095768064,-0.6895301,9.710882,-0.2773328,0.05009095,0.16982053,-7.08,2.1,-33.3
1774512348043,0.29209262,-0.5267244,9.907207,-0.25900686,0.039095376,0.15882497,-7.2599998,2.34,-33.3
1774512348064,0.46447513,-0.51235914,10.04607,-0.204029,0.052534413,0.10140363,-7.2599998,2.34,-33.3
1774512348084,0.46926352,-0.5650316,10.0748005,-0.1600467,0.087964594,0.05497787,-6.7799997,2.82,-33.239998
1774512348120,0.47884035,-0.48362875,10.577583,-0.089186326,0.172264,-0.087964594,-6.72,2.8799999,-32.94
1774512348139,0.2777274,-0.272939,10.721235,0.02687807,0.24678956,-0.15149458,-6.6,2.82,-33.12
1774512348160,-0.023942016,0.05746084,10.419566,0.204029,0.2883284,-0.19303341,-6.7799997,2.76,-32.76
1774512348180,-0.25857377,0.090979666,10.012551,0.29443705,0.25411993,-0.20769419,-6.96,2.1599998,-32.28
1774512348201,-0.48841715,-0.35434186,10.175357,0.18936823,0.15271631,-0.18570304,-7.02,2.34,-32.64
1774512348221,-0.4357447,-0.36870706,10.7356,0.13316862,0.1160644,-0.13561209,-6.96,2.52,-32.399998
1774512348241,-0.17717093,-0.35913026,10.773908,0.33353242,0.10995574,-0.10262536,-6.24,3.12,-32.82
1774512348261,0.31124622,-0.05746084,9.840169,0.7281514,0.103847094,-0.087964594,-6.0,3.06,-33.239998
1774512348280,0.78529817,0.5363012,8.288726,0.90285885,0.15760323,-0.10629055,-5.58,3.0,-33.48
1774512348301,1.1779473,1.1875241,6.775591,0.84788096,0.112399206,-0.18936823,-4.7999997,3.06,-33.66
1774512348321,1.3024458,1.5275006,6.167464,0.54244834,-0.073303826,-0.26633725,-5.16,1.68,-33.84
1774512348340,1.6232687,1.6184803,6.9048777,0.081855945,-0.2125811,-0.30665436,-4.98,0.96,-34.02
1774512348361,1.4700398,1.316811,7.9726915,-0.43004912,-0.16982053,-0.31520647,-4.92,0.06,-33.719997
1774512348381,0.5602432,0.7278373,9.461885,-0.81489426,-0.103847094,-0.33841935,-5.22,-0.59999996,-34.26
1774512348401,-0.5602432,0.01436521,10.582372,-0.9126327,0.0012217305,-0.24801129,-5.04,-0.24,-33.96
1774512348422,-1.1540052,0.08140286,11.353305,-0.8026769,0.10262536,-0.172264,-4.62,0.71999997,-33.36
1774512348442,-1.115698,0.3878607,11.123461,-0.42149702,0.119729586,-0.16126843,-4.5,1.62,-33.66
1774512348462,-0.80445176,0.8523358,10.01734,-0.0720821,-0.004886922,-0.1685988,-4.92,1.5,-33.18
1774512348483,-0.1340753,1.4508862,9.102755,0.08307768,-0.10262536,-0.14294247,-4.98,2.04,-32.88
1774512348504,0.21547815,1.6424223,8.585608,0.10873401,-0.1441642,-0.10873401,-5.16,1.92,-33.0
1774512348524,0.5554548,1.5849615,8.384495,0.10751228,-0.17348573,-0.047647487,-5.22,1.9799999,-32.46
1774512348544,0.8331822,1.460463,8.379706,0.058643065,-0.1001819,-0.002443461,-4.8599997,2.76,-32.34
1774512348564,0.7134721,1.364695,8.528147,-0.035430185,-0.03176499,0.0012217305,-4.92,2.82,-32.52
1774512348584,0.5506664,1.4508862,9.016563,-0.13805555,-0.052534413,0.019547688,-5.2799997,2.58,-32.28
1774512348605,0.44532153,1.532289,9.528923,-0.19303341,-0.09040806,0.040317107,-5.22,2.82,-32.64
1774512348625,0.3878607,1.4173675,10.146626,-0.21868975,-0.09407325,0.05131268,-5.1,2.76,-32.34
1774512348647,0.2825158,1.3694834,10.7116585,-0.17959438,-0.035430185,0.05131268,-4.8599997,3.0,-32.28
1774512348669,-0.05746084,1.3694834,10.864887,-0.035430185,0.007330383,0.08307768,-4.68,3.12,-32.399998
1774512348689,-0.14844051,1.5658079,10.644621,0.14782938,0.028099801,0.17592919,-4.44,3.36,-32.04
1774512348710,0.08619126,1.9393034,10.419566,0.23090707,0.012217305,0.25411993,-5.16,3.24,-31.5
1774512348731,0.35434186,2.1978772,10.390836,0.22113322,-0.032986723,0.2919936,-4.8599997,3.84,-31.199999
1774512348752,0.49320555,2.0973208,10.668563,0.11728613,-0.058643065,0.3042109,-5.16,3.54,-31.08
1774512348774,0.78050977,1.5562311,11.401189,0.0036651916,-0.062308256,0.32375857,-4.98,3.4199998,-31.5
1774512348795,1.0151415,0.8714894,11.975797,0.0,-0.08552113,0.31642818,-4.74,3.72,-31.859999
1774512348817,0.91937345,0.34476504,12.124237,0.061086524,-0.1441642,0.28344148,-5.22,3.4199998,-31.98
1774512348837,0.4309563,-0.81402856,11.980585,-0.042760566,-0.103847094,0.2846632,-5.46,3.6599998,-31.8
1774512348857,0.25857377,-1.8962077,12.20564,-0.042760566,-0.103847094,0.2846632,-5.2799997,4.62,-31.679998
1774512348877,0.25857377,-2.5761611,12.172121,0.27000242,-0.103847094,0.27366763,-5.46,4.38,-30.9
1774512348899,0.0047884034,-3.107674,11.563994,0.5119051,0.009773844,0.2687807,-5.7,4.14,-30.48
1774512348919,-0.272939,-2.9640217,10.041282,0.6010914,0.052534413,0.2565634,-5.94,4.3199997,-30.599998
1774512348939,-0.45968673,-2.5809495,8.456321,0.48991394,0.08674286,0.23823744,-6.54,3.3,-30.359999
1774512348961,-0.6655881,-1.9249382,7.120356,0.1685988,0.13439035,0.23457226,-6.6,3.12,-30.42
1774512348981,-0.51714754,-1.6567876,7.455544,-0.08674286,0.11728613,0.21991149,-6.42,3.24,-31.019999
1774512349001,-0.272939,-1.3934253,7.881712,-0.19547687,0.008552114,0.19181168,-6.0,3.48,-31.08
1774512349023,0.1388637,-1.1779473,8.389283,-0.2773328,-0.05131268,0.14905111,-5.8199997,4.02,-31.439999
1774512349043,0.36391866,-1.1252748,9.006987,-0.35063666,-0.04520403,0.081855945,-5.58,4.44,-31.92
1774512349065,0.51235914,-1.0965444,9.409213,-0.3652974,-0.019547688,0.05131268,-5.8799996,4.5,-31.32
1774512349086,0.5506664,-1.0486604,9.725247,-0.32986724,0.030543262,0.032986723,-6.06,3.8999999,-30.96
1774512349106,0.2825158,-1.0390835,10.070012,-0.23579398,0.09773844,0.029321533,-6.12,3.72,-30.9
1774512349127,-0.320823,-1.1300632,9.595961,-0.08674286,0.111177474,0.039095376,-5.7599998,4.2599998,-30.48
1774512349148,-0.78050977,-1.1061212,9.021352,-0.02076942,0.012217305,0.10262536,-5.16,5.2799997,-30.48
1774512349170,-0.82360536,-0.6991069,8.331821,-0.08307768,-0.05375614,0.13805555,-4.98,5.94,-30.72
1774512349191,-0.91458505,-0.6847417,9.059659,-0.24801129,0.09773844,0.12461651,-6.0,5.4,-30.72
1774512349210,-0.9959879,-0.94810385,8.901642,-0.35918877,0.2003638,0.14782938,-6.72,4.74,-30.539999
1774512349231,-0.6895301,-1.043872,9.275137,-0.45081854,0.14294247,0.18081611,-7.08,4.38,-30.359999
1774512349250,-0.22026655,-1.0055647,9.89763,-0.48380527,0.13561209,0.16493362,-6.48,5.22,-30.119999
1774512349270,0.095768064,-1.1923125,10.266336,-0.41172317,0.095294975,0.08552113,-6.12,5.8199997,-29.58
1774512349291,0.33039984,-1.2018893,10.563218,-0.33353242,-0.02565634,0.010995574,-5.46,6.8399997,-29.76
1774512349311,0.6512229,-0.91937345,10.635044,-0.20891592,-0.14172074,-0.06719518,-4.74,8.34,-29.76
1774512349332,0.6464345,-0.6464345,10.539276,-0.09407325,-0.081855945,-0.14294247,-4.7999997,8.58,-30.0
1774512349354,0.34476504,-0.35913026,10.223241,0.13927728,0.22357668,-0.28588495,-5.22,8.639999,-30.179998
1774512349375,-0.023942016,-0.23463176,10.0029745,0.24923302,0.19425514,-0.32620203,-5.58,8.34,-29.82
1774512349395,-0.34955344,-0.095768064,9.504981,0.23945917,-0.017104227,-0.33841935,-6.0,7.56,-29.699999
1774512349416,-0.61291564,-0.22984336,9.370906,0.17959438,-0.18203785,-0.27366763,-6.12,7.3199997,-29.519999
1774512349436,-0.30645782,-0.59376204,9.873688,0.16982053,-0.1685988,-0.2125811,-5.94,7.5,-29.46
1774512349457,0.19632454,-1.0390835,10.548853,0.34697145,-0.095294975,-0.20891592,-5.7,7.56,-29.82
1774512349476,0.9720459,-0.93852705,10.280702,0.50335294,-0.13439035,-0.34330627,-5.22,7.68,-30.179998
1774512349497,1.7525556,-0.31124622,9.045294,0.5522222,-0.27977628,-0.46792278,-4.98,7.7999997,-30.06
1774512349516,1.7142484,0.20590134,7.752425,0.29443705,-0.27000242,-0.48502702,-4.98,7.68,-30.359999
1774512349537,1.7860745,0.35434186,7.335834,-0.23701571,-0.06841691,-0.40194935,-5.3399997,6.96,-30.66
1774512349557,1.8195933,0.82360536,7.7811556,-0.71837753,0.007330383,-0.4166101,-5.58,6.7799997,-30.119999
1774512349577,0.8858546,0.4309563,9.083601,-0.8344419,0.0842994,-0.33964106,-5.58,6.6,-30.06
1774512349596,-0.320823,-0.08140286,10.409989,-0.6768387,0.22479841,-0.25167647,-6.18,6.2999997,-30.119999
1774512349617,-0.8762778,-0.11971009,11.080365,-0.27488935,0.24923302,-0.22479841,-6.6,6.18,-29.939999
1774512349637,-0.9672575,-0.033518825,10.927136,0.15760323,0.111177474,-0.23579398,-7.14,5.8799996,-30.539999
1774512349657,-0.6895301,0.19632454,9.691729,0.31520647,-0.047647487,-0.1881465,-7.68,5.58,-30.84
1774512349678,-0.29688102,0.47405192,8.848969,0.2968805,-0.047647487,-0.105068825,-7.44,5.64,-30.9
1774512349698,0.090979666,0.6368576,8.508993,0.2602286,0.034208454,-0.017104227,-6.8999996,6.42,-30.72
1774512349718,0.4165911,0.7086837,8.504205,0.28221974,0.059864793,0.052534413,-6.66,6.72,-30.599998
1774512349738,0.56982,0.7422025,8.049306,0.22235495,0.05131268,0.06719518,-6.12,6.8999996,-30.06
1774512349760,0.34955344,1.0486604,7.73806,0.0720821,0.017104227,0.047647487,-6.2999997,6.72,-29.46
1774512349780,0.15322891,1.2018893,8.154651,-0.15515977,-0.064751714,0.095294975,-6.2999997,6.8399997,-29.34
1774512349801,0.46447513,1.2737153,9.102755,-0.408058,-0.2003638,0.14294247,-6.3599997,6.8999996,-29.099998
1774512349821,0.90021986,0.94810385,10.390836,-0.6780604,-0.31764993,0.16615535,-6.66,6.8399997,-29.099998
1774512349841,1.2545617,0.94810385,11.903971,-0.8063421,-0.41538838,0.17592919,-6.0,8.099999,-29.039999
1774512349861,1.1109096,0.80924016,12.990938,-0.4569272,-0.37873647,0.058643065,-6.3599997,8.099999,-28.5
1774512349881,0.79966336,1.1252748,12.555194,0.10629055,-0.04520403,0.029321533,-6.42,8.58,-28.019999
1774512349903,0.6895301,1.6232687,11.36767,0.42271876,0.15393804,0.05497787,-6.6,9.599999,-28.019999
1774512349923,0.6512229,1.8339585,10.366894,0.45937067,0.16982053,0.09896017,-7.14,9.36,-28.38
1774512349945,0.63206923,1.484405,10.400413,0.23457226,0.017104227,0.16493362,-7.3199997,9.12,-28.56
1774512349965,0.7422025,0.60333884,11.281479,0.058643065,-0.087964594,0.19914207,-7.3199997,9.0,-28.56
1774512349987,1.0534488,-0.009576807,11.712435,0.05131268,-0.118507855,0.19303341,-6.7799997,8.94,-28.32
1774512350009,1.0965444,-0.5554548,11.492168,0.087964594,-0.13683382,0.13439035,-6.72,9.599999,-28.14
1774512350030,0.62249243,-1.7908629,11.563994,0.02687807,-0.15393804,0.112399206,-7.08,9.3,-28.38
1774512350052,0.32561144,-2.6048915,11.999739,-0.061086524,-0.05375614,0.16249016,-7.08,9.96,-28.68
1774512350074,0.31603462,-2.5713725,11.540052,0.1160644,0.0012217305,0.19547687,-6.96,10.5,-28.859999
1774512350095,0.08619126,-2.695871,10.366894,0.50823987,-0.015882496,0.14905111,-6.8999996,10.0199995,-29.039999
1774512350115,-0.15801731,-2.566584,9.107543,0.66339964,0.0,0.12583824,-6.72,10.5,-29.099998
1774512350136,-0.33039984,-2.4133554,8.169016,0.39706242,0.010995574,0.15027285,-7.08,9.66,-29.58
1774512350158,-0.4309563,-2.3942018,7.800309,0.06841691,0.02321288,0.16371189,-6.8999996,9.24,-29.279999
1774512350178,-0.25857377,-2.2026656,7.929596,-0.13927728,0.065973446,0.13072516,-6.96,9.179999,-29.16
1774512350199,-0.21547815,-2.1164744,8.451532,-0.16982053,0.07452556,0.118507855,-7.02,9.12,-29.58
1774512350221,-0.34476504,-2.111686,8.556877,-0.1685988,0.05131268,0.16615535,-7.2,9.12,-29.16
1774512350241,-0.0047884034,-1.8483237,8.63828,-0.22357668,0.05009095,0.19547687,-7.62,9.059999,-29.46
1774512350263,0.22026655,-1.5801731,8.925584,-0.28588495,0.039095376,0.17837265,-7.2599998,9.78,-29.519999
1774512350283,0.25378537,-1.4939818,9.437943,-0.2919936,0.0842994,0.13805555,-7.44,9.9,-29.58
1774512350304,-0.076614454,-1.4939818,9.284714,-0.21502456,0.12583824,0.14172074,-7.74,9.96,-29.46
1774512350326,-0.272939,-1.4652514,9.260772,-0.19058995,0.09285152,0.18203785,-7.3799996,10.679999,-29.699999
1774512350346,-0.30645782,-1.3982137,9.093178,-0.2125811,0.09773844,0.204029,-7.98,10.62,-29.46
1774512350372,0.02873042,-1.1827357,8.892065,-0.21013765,-0.1160644,0.16737708,-8.04,10.5,-29.34
1774512350392,0.05746084,-1.1971009,9.940725,-0.17470746,-0.032986723,0.0720821,-7.98,11.4,-29.519999
1774512350412,-0.15322891,-1.4221559,9.672575,-0.13805555,0.14660765,0.028099801,-7.98,11.4,-29.519999
1774512350457,0.033518825,-1.6807296,9.399636,-0.19425514,-0.047647487,-0.010995574,-8.22,12.24,-29.76
1774512350478,0.095768064,-1.6759412,9.548077,-0.23579398,-0.096516706,-0.05497787,-8.16,12.12,-29.58
1774512350500,0.5554548,-1.292869,10.0269165,-0.19547687,-0.096516706,-0.13194689,-8.34,12.24,-30.06
1774512350520,0.6368576,-0.9864111,10.357317,-0.07086037,0.06719518,-0.25411993,-8.76,12.179999,-29.82
1774512350540,0.521936,-0.641646,9.763555,0.13805555,0.21135938,-0.34697145,-8.76,11.94,-29.46
1774512350560,0.34955344,-0.22984336,9.136273,0.20158553,0.19547687,-0.38362336,-8.58,12.12,-29.4
1774512350581,0.36870706,-0.40222588,9.562442,0.10873401,0.05497787,-0.38606682,-8.34,12.179999,-29.22
1774512350600,0.8523358,-0.93852705,10.505757,-0.080634214,-0.037873644,-0.39584067,-6.96,13.259999,-29.82
1774512350621,1.5179238,-0.8331822,10.721235,-0.06719518,-0.06963864,-0.45448375,-6.8399997,13.44,-30.66
1774512350642,1.9393034,-0.24420857,10.419566,0.23579398,-0.15149458,-0.535118,-7.3199997,13.2,-30.539999
1774512350662,1.661576,0.04309563,9.246407,0.54733527,-0.014660766,-0.6133087,-7.5,13.139999,-30.66
1774512350682,1.5275006,0.33518824,8.528147,0.44226643,0.06963864,-0.49235737,-7.7999997,12.66,-30.359999
1774512350702,1.2162545,0.58418524,8.8777,0.043982297,0.1001819,-0.37140608,-7.7999997,12.24,-30.06
1774512350723,0.110133275,0.12928689,9.533711,-0.16126843,0.052534413,-0.30787608,-7.44,12.719999,-30.599998
1774512350744,-0.5363012,0.17717093,9.892841,-0.16982053,0.064751714,-0.19058995,-7.14,12.599999,-30.96
1774512350764,-0.90500826,0.36870706,9.816227,-0.05375614,0.019547688,-0.19303341,-7.62,12.179999,-30.9
1774512350784,-1.0007763,0.29209262,9.404425,0.09040806,-0.047647487,-0.22479841,-7.98,12.0,-30.96
1774512350803,-0.50278234,0.2681506,8.925584,0.09407325,-0.034208454,-0.22479841,-8.4,11.639999,-30.96
1774512350824,0.34476504,0.37828386,8.973468,0.0012217305,-0.004886922,-0.1881465,-9.059999,10.62,-30.42
1774512350845,0.6607997,0.44532153,9.059659,-0.02076942,-0.017104227,-0.19425514,-9.24,10.38,-30.72
1774512350865,0.81881696,0.58897364,9.016563,-0.002443461,-0.036651913,-0.15760323,-9.36,10.74,-30.72
1774512350886,0.8858546,0.7613561,8.920795,0.037873644,-0.04520403,-0.09773844,-9.84,10.139999,-30.3
1774512350908,0.91458505,0.8619126,8.767567,0.05375614,-0.02076942,-0.04520403,-9.3,11.4,-30.359999
1774512350929,0.7326257,0.9768343,8.686164,0.029321533,0.008552114,-0.02076942,-9.42,11.16,-29.939999
1774512350949,0.5267244,1.2114661,8.8777,-0.03176499,0.019547688,0.010995574,-8.94,11.759999,-29.88
1774512350969,0.320823,1.2449849,9.14585,-0.06963864,0.02321288,0.039095376,-9.599999,11.46,-29.82
1774512350990,0.22505496,1.1971009,9.528923,-0.089186326,0.017104227,0.0842994,-10.32,11.28,-30.0
1774512351010,0.16759412,1.1683705,10.04607,-0.06352998,0.029321533,0.12705997,-10.2,11.34,-30.3
1774512351032,0.11971009,1.1875241,10.31901,0.007330383,0.043982297,0.15882497,-10.8,10.74,-30.779999
1774512351053,0.10534488,1.2306197,10.43872,0.07819075,0.07696902,0.17837265,-10.32,11.4,-30.72
1774512351074,0.24899697,1.1109096,10.429143,0.21380283,0.06963864,0.2406809,-10.139999,11.4,-30.599998
1774512351095,0.521936,1.3215994,10.548853,0.21380283,0.06963864,0.2406809,-10.08,11.7,-30.9
1774512351115,0.78529817,1.3790601,10.28549,0.16615535,0.0061086523,0.26633725,-9.24,12.66,-31.08
1774512351136,0.94331545,1.2641385,10.237606,0.008552114,-0.14905111,0.29443705,-8.82,13.5,-31.38
1774512351157,1.0390835,0.9816227,11.046846,-0.09040806,-0.16493362,0.30543262,-8.7,13.08,-31.619999
1774512351177,1.1731589,0.62249243,11.990162,-0.004886922,-0.13439035,0.24923302,-9.3,12.9,-31.439999
1774512351199,0.7278373,-0.8523358,12.0571995,0.10140363,-0.14660765,0.17837265,-10.0199995,12.78,-31.38
1774512351219,0.37828386,-2.1260512,11.956643,0.10873401,-0.23335053,0.16249016,-10.32,12.24,-31.32
1774512351240,0.6464345,-2.5713725,12.196063,0.08552113,-0.2773328,0.22357668,-10.26,12.719999,-31.619999
1774512351261,0.34476504,-3.0119057,11.856087,0.25411993,-0.13439035,0.20280726,-10.2,13.139999,-32.16
1774512351283,-0.095768064,-2.9879637,10.654198,0.44715336,0.07696902,0.21746802,-10.62,12.96,-32.34
1774512351303,-0.521936,-2.5139117,9.284714,0.5681047,0.17592919,0.19303341,-10.74,12.96,-32.52
1774512351324,-0.842759,-2.2888567,8.331821,0.5363397,0.1563815,0.18081611,-11.04,12.78,-32.52
1774512351344,-0.8283938,-1.8339585,7.8912888,0.31031954,0.13439035,0.21380283,-10.98,12.48,-32.579998
1774512351363,-0.61291564,-1.4508862,8.082825,0.07452556,0.09896017,0.20769419,-10.5,12.9,-32.76
1774512351384,-0.25378537,-1.0773908,8.283937,0.032986723,0.043982297,0.17348573,-10.92,12.42,-33.18
1774512351406,0.10534488,-1.0007763,8.422802,0.061086524,0.013439035,0.12339478,-10.86,12.42,-33.239998
1774512351426,0.1388637,-0.9864111,8.279149,0.061086524,-0.02443461,0.064751714,-10.74,12.179999,-34.02
1774512351447,0.2777274,-0.91937345,8.647857,-0.004886922,0.0,0.062308256,-10.62,11.639999,-34.02
1774512351469,0.30166942,-0.7182605,8.690952,-0.021991149,0.08552113,0.06963864,-11.04,10.98,-34.739998
1774512351488,-0.019153614,-0.7757214,9.107543,0.002443461,0.22235495,0.07819075,-11.04,10.8,-34.68
1774512351508,-0.46447513,-1.0342951,8.748413,0.007330383,0.11728613,0.13194689,-10.86,11.16,-34.92
1774512351531,-0.770933,-0.8331822,8.259995,-0.008552114,-0.16982053,0.19303341,-10.86,11.16,-34.92
1774512351552,-0.9816227,-0.8762778,8.743625,-0.16615535,-0.12095132,0.1685988,-10.38,11.58,-35.04
1774512351572,-0.92895025,-0.7661445,8.844181,-0.3323107,0.07941248,0.17104226,-10.559999,11.759999,-34.68
1774512351592,-0.8379706,-0.7086837,9.030929,-0.3286455,0.13805555,0.16737708,-10.5,11.82,-34.92
1774512351613,-0.7517793,-0.7038953,8.810662,-0.41416663,0.103847094,0.24556783,-10.139999,12.599999,-35.04
1774512351634,-0.45968673,-0.7613561,8.882488,-0.5864306,0.037873644,0.26389378,-10.08,12.9,-35.219997
1774512351657,-0.2873042,-1.460463,10.582372,-0.74036866,0.089186326,0.26511553,-10.32,13.0199995,-35.219997
1774512351678,0.10055647,-1.412579,11.420342,-0.6719518,0.23457226,0.23090707,-10.74,13.74,-35.28
1774512351698,0.50278234,-1.0486604,11.439496,-0.3640757,0.21135938,0.1282817,-11.16,14.099999,-35.52
1774512351718,0.60333884,-0.90979666,10.812215,-0.07696902,0.07941248,0.010995574,-11.7,14.219999,-35.399998
1774512351739,0.61291564,-0.48362875,10.812215,0.080634214,0.0,-0.059864793,-10.98,15.599999,-35.94
1774512351758,0.5650316,-0.1340753,10.553641,0.3359759,-0.0061086523,-0.10995574,-10.74,16.199999,-35.82
1774512351778,0.63206923,0.10534488,9.605537,0.47525316,-0.07819075,-0.14049901,-11.04,16.02,-35.94
1774512351798,0.9911995,0.009576807,9.763555,0.38728857,-0.21013765,-0.1881465,-11.04,15.96,-36.239998
1774512351819,1.5227122,-0.4165911,10.079589,0.29077184,-0.14538592,-0.2932153,-11.88,15.059999,-36.12
1774512351839,1.9728222,-0.33518824,9.993398,0.30787608,-0.103847094,-0.45204028,-12.059999,14.16,-35.76
1774512351859,1.982399,-0.16280572,9.44752,0.52412236,-0.1160644,-0.57787853,-11.7,14.4,-35.88
1774512351880,1.6424223,-0.02873042,8.700529,0.6072,-0.08674286,-0.5656612,-12.84,13.92,-36.42
1774512351900,1.5658079,0.50278234,8.365341,0.31764993,0.02321288,-0.45570546,-12.599999,13.559999,-36.42
1774512351921,1.0295067,0.59855044,8.781932,-0.0720821,0.0842994,-0.39584067,-13.2,12.719999,-37.14
1774512351941,0.1388637,0.45489833,9.442732,-0.31642818,0.09162979,-0.31642818,-14.04,11.94,-37.92
1774512351962,-0.6847417,0.4357447,9.892841,-0.3652974,0.12095132,-0.25778514,-13.0199995,11.759999,-37.26
1774512351981,-1.1587936,0.44532153,10.012551,-0.26145032,0.1160644,-0.2687807,-12.54,12.78,-37.559998
1774512352002,-0.9911995,0.51714754,9.548077,-0.04642576,0.04642576,-0.28344148,-12.36,12.96,-37.38
1774512352022,-0.23463176,0.545878,9.006987,0.059864793,-0.05009095,-0.2846632,-12.24,13.0199995,-36.12
1774512352043,0.46926352,0.6512229,8.863335,0.07696902,-0.09162979,-0.3286455,-12.48,13.32,-36.239998
1774512352062,0.7661445,0.6560113,8.647857,0.07941248,-0.040317107,-0.3286455,-13.139999,12.36,-36.18
1774512352083,0.9576807,0.89064306,8.355764,0.09285152,0.008552114,-0.27000242,-13.5,12.36,-36.059998
1774512352104,0.91937345,1.0342951,8.169016,0.047647487,0.017104227,-0.21746802,-13.259999,12.24,-36.12
1774512352124,0.82360536,1.0486604,8.145074,-0.09162979,-0.03176499,-0.14172074,-13.32,11.82,-36.3
1774512352144,0.80445176,1.283292,8.872911,-0.24923302,-0.07941248,-0.087964594,-13.74,11.099999,-36.48
1774512352166,0.45010993,1.4556746,9.409213,-0.2919936,-0.036651913,-0.065973446,-13.08,11.88,-36.48
1774512352186,0.22505496,1.4460979,9.797073,-0.23579398,-0.062308256,-0.043982297,-12.78,12.36,-36.719997
1774512352206,0.1436521,1.3694834,10.093954,-0.12705997,-0.081855945,-0.02565634,-12.78,12.36,-36.719997
1774512352227,-0.090979666,1.283292,10.141838,0.02321288,-0.029321533,0.0036651916,-13.139999,12.42,-36.54
1774512352248,-0.22505496,1.1109096,9.787497,0.12461651,0.080634214,0.058643065,-13.799999,11.94,-36.78
1774512352271,-0.23463176,1.3599066,9.361329,0.17837265,0.15515977,0.12950343,-13.559999,12.12,-37.38
1774512352293,-0.25857377,1.6328455,8.925584,0.17592919,0.111177474,0.16126843,-13.799999,11.5199995,-37.32
1774512352313,0.25857377,1.7046716,9.165004,-0.052534413,0.02565634,0.25289822,-14.099999,11.88,-37.739998
1774512352333,0.7469909,1.8004397,10.189722,-0.39950588,-0.17104226,0.34208453,-14.099999,12.42,-37.5
1774512352354,0.93852705,1.2114661,11.128249,-0.53878313,-0.28588495,0.42149702,-14.4,12.42,-37.5
1774512352376,1.1300632,0.40222588,12.176909,-0.5729916,-0.42638394,0.46181414,-13.92,13.38,-37.44
1774512352396,1.5753847,0.17238252,13.623008,-0.37018433,-0.47891834,0.3640757,-13.62,13.98,-37.38
1774512352416,1.7525556,-0.16759412,13.929465,-0.2919936,-0.33964106,0.19303341,-13.679999,14.28,-37.8
1774512352436,1.3742718,-1.5849615,13.800179,-0.1685988,-0.096516706,0.039095376,-13.679999,15.299999,-37.86
1774512352457,0.92895025,-2.327164,13.627796,0.25411993,-0.010995574,-0.032986723,-13.86,15.719999,-38.04
1774512352478,-0.12449849,-2.6048915,10.529699,0.65484756,0.058643065,-0.018325957,-14.099999,15.54,-38.04
1774512352498,-0.40701428,-2.255338,8.566454,0.84665924,0.029321533,0.009773844,-14.5199995,15.599999,-37.92
1774512352520,-0.80445176,-2.0925324,7.0724716,0.7806858,0.010995574,0.030543262,-14.7,15.059999,-37.92
1774512352541,-1.1300632,-2.1452048,6.6079965,0.46792278,0.028099801,0.087964594,-14.82,14.88,-38.34
1774512352564,-1.1492168,-2.1978772,7.019799,0.07941248,0.06719518,0.18448131,-15.36,14.219999,-38.76
1774512352585,-0.9911995,-2.2744915,7.9487495,-0.17104226,0.103847094,0.27122417,-15.179999,13.62,-39.0
1774512352606,-0.89064306,-2.6192567,8.312668,-0.20280726,0.07696902,0.30543262,-15.36,13.08,-39.48
1774512352626,-0.545878,-2.552219,8.614338,-0.2406809,-0.012217305,0.33353242,-14.82,13.0199995,-39.66
1774512352646,-0.04309563,-2.3798366,8.987833,-0.32742378,-0.065973446,0.33108896,-15.0,13.08,-40.14
1774512352666,0.34955344,-2.1787236,9.466674,-0.3567453,-0.04153884,0.3005457,-14.94,13.38,-40.079998
1774512352687,0.35434186,-1.9680338,9.768343,-0.3115413,0.037873644,0.30176744,-15.0,13.559999,-40.379997
1774512352708,0.272939,-1.6376339,9.543288,-0.2321288,0.10751228,0.33841935,-15.24,13.139999,-40.2
1774512352729,0.32561144,-1.3742718,9.370906,-0.17104226,0.10995574,0.35308012,-15.12,13.679999,-39.899998
1774512352749,0.36391866,-1.1827357,9.44752,-0.105068825,0.09407325,0.31642818,-15.24,13.62,-39.48
1774512352771,0.12449849,-1.1013328,9.02614,-0.05497787,0.0,0.26389378,-14.88,14.04,-39.239998
1774512352792,-0.08140286,-1.2880806,9.466674,-0.05497787,-0.012217305,0.2406809,-14.16,15.0,-39.42
1774512352815,0.2633622,-1.0965444,9.227253,-0.15515977,0.008552114,0.172264,-14.04,15.299999,-39.66
1774512352834,0.29209262,-1.2641385,9.562442,-0.19547687,0.06841691,0.09285152,-14.46,15.42,-40.14
1774512352855,0.4165911,-1.6136919,10.213664,-0.13805555,0.0842994,0.012217305,-14.5199995,15.9,-40.14
1774512352876,0.37349546,-1.6424223,10.275913,-0.058643065,0.05375614,-0.043982297,-15.299999,15.36,-40.079998
1774512352897,0.58897364,-1.2641385,10.151415,-0.004886922,0.018325957,-0.11484267,-14.759999,16.02,-40.02
1774512352918,0.5506664,-1.1827357,10.041282,0.04153884,0.056199603,-0.22357668,-14.099999,16.14,-40.079998
1774512352960,0.25378537,-0.6703765,9.423578,0.16982053,0.24801129,-0.376293,-13.679999,15.96,-40.559998
1774512352981,0.2825158,-0.37349546,9.251195,0.18448131,0.2602286,-0.43493605,-13.74,15.36,-41.16
1774512353001,-0.19632454,-0.641646,9.208099,0.09773844,0.08307768,-0.44226643,-13.98,14.759999,-40.8
1774512353021,0.038307227,-1.2162545,10.342952,-0.15027285,-0.05375614,-0.35796702,-14.099999,14.4,-40.98
1774512353041,0.24420857,-1.4700398,11.271901,-0.16371189,0.058643065,-0.31520647,-14.16,14.099999,-41.399998
1774512353062,0.6560113,-1.0534488,10.970232,0.21013765,0.15882497,-0.2919936,-14.94,13.139999,-41.1
1774512353082,1.115698,-0.23942018,9.26556,0.7476991,0.08674286,-0.36285394,-14.88,13.139999,-41.399998
1774512353103,1.2162545,0.15322891,7.2352777,0.86498517,-0.081855945,-0.4166101,-14.7,13.62,-41.76
1774512353123,1.4413095,0.39264908,6.7468605,0.54611355,-0.2761111,-0.39584067,-14.759999,12.9,-41.579998
1774512353143,1.7621324,0.6847417,7.8290396,-0.047647487,-0.2284636,-0.3200934,-14.88,12.3,-41.76
1774512353163,1.2689269,0.3878607,9.035717,-0.54367006,-0.04520403,-0.31398472,-14.7,12.059999,-42.3
1774512353184,0.095768064,-0.047884032,10.127473,-0.61086524,-0.002443461,-0.28955013,-15.059999,11.099999,-42.48
1774512353204,-0.51235914,-0.090979666,10.702082,-0.5338962,0.07452556,-0.25045475,-14.639999,11.82,-42.54
1774512353225,-0.63206923,-0.02873042,10.927136,-0.33964106,0.18081611,-0.23579398,-14.58,12.12,-42.18
1774512353246,-0.5602432,0.30645782,10.213664,-0.015882496,0.2968805,-0.2321288,-14.4,12.3,-41.879997
1774512353267,-0.49799395,0.6655881,8.892065,0.12950343,0.21013765,-0.23579398,-13.98,13.08,-42.0
1774512353287,-0.12928689,1.0151415,8.288726,0.09285152,0.0720821,-0.21013765,-13.62,13.38,-41.94
1774512353307,0.2873042,1.2449849,8.394072,-0.015882496,0.042760566,-0.16493362,-14.219999,13.259999,-42.3
1774512353327,0.47405192,1.067814,8.700529,-0.08307768,0.103847094,-0.13072516,-14.639999,12.599999,-42.66
1774512353348,0.60333884,0.81402856,8.78672,-0.13683382,0.09162979,-0.08552113,-15.12,11.58,-42.66
1774512353367,0.5267244,0.6703765,9.404425,-0.17592919,0.047647487,-0.062308256,-15.839999,11.04,-42.78
1774512353387,0.20590134,0.7086837,9.56723,-0.13683382,0.039095376,-0.029321533,-15.54,11.099999,-42.36
1774512353408,0.10055647,0.866701,9.653421,-0.112399206,0.02076942,0.012217305,-14.82,12.24,-41.879997
1774512353428,0.20590134,1.1348516,10.208876,-0.118507855,-0.015882496,0.04642576,-14.759999,12.84,-42.239998
1774512353449,0.1436521,1.1779473,10.635044,-0.06963864,-0.030543262,0.0720821,-14.58,13.259999,-41.82
1774512353471,-0.076614454,1.0342951,10.82658,0.059864793,-0.04642576,0.089186326,-14.46,13.32,-42.0
1774512353492,-0.19153613,0.91458505,10.553641,0.24678956,0.002443461,0.22724187,-14.759999,12.96,-42.6
1774512353513,-0.17238252,0.9576807,10.357317,0.2602286,0.009773844,0.31764993,-14.58,13.2,-42.719997
1774512353535,-0.0047884034,1.1683705,10.271125,0.267559,-0.03176499,0.38240165,-13.92,13.559999,-42.899998
1774512353554,0.17238252,1.3359646,10.453085,0.25900686,-0.087964594,0.4202753,-13.86,13.5,-43.2
1774512353576,0.46926352,1.5514427,10.400413,0.09896017,-0.13805555,0.41783184,-13.799999,13.259999,-43.379997
1774512353597,0.7134721,0.2825158,11.573571,0.002443461,-0.17470746,0.44104472,-13.74,13.08,-43.26
1774512353618,0.8475474,-0.37828386,12.430696,-0.021991149,-0.14294247,0.41416663,-14.219999,12.54,-43.5
1774512353639,0.5602432,-1.2210429,12.4785795,0.096516706,-0.058643065,0.35063666,-13.86,12.84,-43.739998
1774512353661,0.2777274,-2.2936451,12.100295,0.25778514,-0.004886922,0.3213151,-14.099999,12.36,-43.86
1774512353681,0.4165911,-2.4133554,11.36767,0.41905355,-0.07696902,0.28221974,-14.34,11.88,-43.86
1774512353702,0.37349546,-2.6910827,10.477027,0.5510005,-0.15882497,0.18936823,-14.34,11.759999,-43.98
1774512353724,0.2825158,-2.566584,9.615114,0.6206391,-0.16737708,0.13805555,-14.94,10.8,-44.16
1774512353744,0.12449849,-2.5187001,8.75799,0.5510005,-0.13927728,0.09407325,-14.639999,10.5,-44.1
1774512353764,-0.047884032,-2.4468741,8.5473,0.35430184,-0.061086524,0.080634214,-15.12,9.66,-44.16
1774512353784,-0.38307226,-2.1787236,8.542512,0.15515977,0.07696902,0.08307768,-14.82,9.42,-43.8
1774512353804,-0.7086837,-1.9488802,8.66701,0.04642576,0.16615535,0.103847094,-15.0,8.94,-43.86
1774512353823,-0.80445176,-1.6376339,8.499416,0.07574729,0.1441642,0.12583824,-15.42,7.8599997,-43.68
1774512353845,-0.62249243,-1.2354081,8.130709,0.13683382,0.047647487,0.13439035,-15.0,7.8599997,-43.86
1774512353866,-0.39264908,-1.0821792,7.7332716,0.13194689,-0.064751714,0.11362094,-14.82,7.8599997,-44.219997
1774512353885,-0.047884032,-0.8762778,7.9104424,-0.061086524,-0.07696902,0.10995574,-14.04,8.46,-44.52
1774512353905,0.22505496,-0.8331822,8.834604,-0.25167647,-0.0036651916,0.089186326,-13.679999,8.76,-44.76
1774512353926,0.38307226,-1.0103531,9.461885,-0.24678956,0.058643065,0.096516706,-13.62,8.76,-44.82
1774512353947,-0.076614454,-1.3311762,9.672575,-0.089186326,0.036651913,0.13805555,-13.679999,8.76,-45.12
1774512353968,-0.6368576,-1.3120226,9.629479,-0.029321533,-0.0036651916,0.23335053,-13.92,8.5199995,-44.82
1774512353989,-0.8379706,-1.1252748,9.696517,-0.10995574,0.015882496,0.32620203,-14.04,8.88,-45.0
1774512354010,-0.7613561,-0.82360536,9.911995,-0.12950343,0.089186326,0.36774087,-13.98,8.94,-44.879997
1774512354030,-0.33039984,-0.45489833,9.959879,-0.09040806,0.06719518,0.21624629,-13.86,9.179999,-44.46
1774512354051,-0.10534488,-0.4357447,10.089166,-0.10751228,0.12705997,0.11484267,-13.98,9.24,-44.76
1774512354071,0.4261679,-0.320823,10.180145,-0.052534413,0.05375614,0.014660766,-14.099999,9.24,-44.579998
1774512354092,0.7757214,-0.25857377,10.151415,0.015882496,0.009773844,-0.029321533,-14.34,8.82,-44.7
1774512354111,0.9720459,-0.30645782,10.304645,0.058643065,0.043982297,-0.061086524,-14.4,8.22,-44.879997
1774512354132,1.1492168,0.0047884034,10.314221,0.19547687,0.15882497,-0.14538592,-14.219999,8.5199995,-45.0
1774512354162,-0.009576807,-0.21547815,9.3421755,0.3323107,0.204029,-0.30176744,-13.92,8.4,-45.78
1774512354181,0.17238252,0.8762778,8.858546,0.41050145,0.17592919,-0.28221974,-13.92,8.4,-45.78
1774512354201,0.30166942,0.16759412,9.208099,0.24678956,0.13072516,-0.34574974,-13.86,8.5199995,-45.48
1774512354221,0.8379706,-0.33997664,10.333375,0.08674286,0.17104226,-0.3640757,-13.5,7.7999997,-45.6
1774512354241,1.0582372,-0.10534488,9.873688,0.18203785,0.09773844,-0.49480084,-13.32,7.44,-45.719997
1774512354262,0.7374141,0.5363012,8.959103,0.4373795,-0.14782938,-0.6230826,-12.9,7.62,-45.66
1774512354281,0.94810385,0.7517793,8.159439,0.5314528,-0.38973203,-0.64996064,-12.48,7.3799996,-46.26
1774512354302,1.532289,1.1587936,8.327033,0.22479841,-0.39095375,-0.5510005,-12.54,6.8999996,-46.02
1774512354322,1.6472107,1.316811,8.571242,-0.19181168,-0.13194689,-0.49846604,-12.84,5.58,-45.719997
1774512354342,0.8331822,0.61291564,9.069236,-0.48502702,0.089186326,-0.48624873,-12.84,5.58,-45.719997
1774512354362,-0.22984336,0.24899697,9.514558,-0.5900958,0.172264,-0.44104472,-12.9,5.58,-45.78
1774512354383,-1.0773908,0.20590134,9.634268,-0.44104472,0.087964594,-0.38973203,-13.559999,5.2799997,-46.079998
1774512354403,-1.1875241,0.37349546,9.184157,-0.1881465,-0.032986723,-0.32375857,-12.96,6.24,-45.96
1774512354424,-0.641646,0.6943185,8.432379,-0.118507855,-0.065973446,-0.2687807,-13.08,6.06,-46.32
1774512354443,-0.17238252,0.92416185,8.231265,-0.2602286,-0.058643065,-0.22357668,-13.2,6.42,-46.379997
1774512354464,0.16280572,1.13964,8.537724,-0.36163223,-0.057421334,-0.18081611,-13.139999,6.72,-46.14
1774512354484,0.4357447,1.1875241,8.925584,-0.38973203,-0.05375614,-0.12217305,-13.679999,6.6,-46.98
1774512354504,0.7757214,1.2114661,9.289502,-0.39706242,-0.09040806,-0.06352998,-13.92,6.54,-46.32
1774512354524,0.9816227,1.412579,9.591172,-0.3567453,-0.089186326,-0.018325957,-14.16,6.42,-46.32
1774512354544,0.9959879,1.5562311,9.615114,-0.2761111,-0.08552113,-0.018325957,-14.5199995,6.48,-46.26
1774512354564,0.82360536,1.6328455,9.720459,-0.2406809,-0.05497787,-0.02076942,-14.46,6.72,-45.96
1774512354584,0.7038953,1.7286136,10.146626,-0.2125811,-0.012217305,-0.021991149,-14.88,6.66,-46.14
1774512354604,0.37828386,1.5658079,10.548853,-0.0720821,0.02687807,-0.035430185,-14.58,7.2599998,-45.96
1774512354625,0.033518825,1.2066777,10.314221,0.09773844,0.06963864,-0.015882496,-14.34,7.3799996,-45.719997
1774512354645,-0.04309563,1.1109096,9.706094,0.1881465,0.036651913,0.035430185,-14.639999,6.8399997,-45.42
1774512354667,-0.009576807,1.2258313,9.56723,0.16371189,0.013439035,0.096516706,-14.4,7.2,-45.66
1774512354688,0.19153613,1.0630256,9.653421,0.05375614,0.010995574,0.15882497,-14.28,7.2,-45.66
1774512354708,0.5793968,0.94810385,10.635044,-0.09896017,-0.05375614,0.20647246,-14.639999,7.2599998,-45.6
1774512354729,0.7278373,0.7469909,11.779472,-0.065973446,-0.10262536,0.118507855,-14.34,7.44,-45.42
1774512354750,1.0534488,0.545878,12.957419,-0.065973446,-0.10262536,0.118507855,-14.04,7.98,-44.7
1774512354771,0.90500826,-0.16280572,13.852851,0.13316862,-0.06352998,0.009773844,-13.74,7.7999997,-44.76
1774512354792,0.35913026,-1.6280571,13.948619,0.047647487,-0.1001819,0.06352998,-12.84,8.58,-44.879997
1774512354813,0.51235914,-2.1739352,13.718776,0.22235495,-0.111177474,0.012217305,-13.32,8.22,-45.239998
1774512354834,0.8571242,-2.3702598,13.072341,0.54367006,0.018325957,-0.04153884,-13.2,7.68,-45.059998
1774512354854,0.41180268,-2.0925324,11.45865,0.7672467,0.24801129,-0.05497787,-13.62,7.5,-45.36
1774512354875,-0.79487497,-1.7142484,7.192182,0.8063421,0.267559,0.061086524,-14.16,6.42,-45.239998
1774512354895,-1.0342951,-1.2114661,6.081272,0.66950834,0.12095132,0.1600467,-13.5,6.24,-45.48
1774512354916,-1.115698,-1.0534488,5.9519854,0.42271876,-0.07574729,0.14782938,-13.32,5.8799996,-46.079998
1774512354936,-0.9959879,-1.1252748,6.7803793,0.13194689,-0.22724187,0.13194689,-13.08,4.7999997,-45.719997
1774512354956,-0.7565677,-1.3838485,7.762002,-0.07941248,-0.25045475,0.10629055,-12.9,4.3199997,-46.14
1774512354978,-0.59855044,-1.8195933,8.66701,-0.30665436,-0.16615535,0.12095132,-12.719999,4.2,-46.079998
1774512354999,-0.2873042,-2.1260512,9.495404,-0.4728097,-0.14538592,0.16737708,-12.78,3.84,-46.02
1774512355020,0.16280572,-2.111686,10.357317,-0.453262,-0.1441642,0.18448131,-12.54,4.56,-45.84
1774512355041,0.10055647,-2.1739352,10.58716,-0.31520647,-0.10262536,0.18448131,-13.559999,3.72,-45.78
1774512355062,-0.02873042,-1.9393034,10.031705,-0.18448131,-0.0720821,0.23579398,-13.74,4.2599998,-45.059998
1774512355083,0.023942016,-1.364695,9.581595,-0.118507855,-0.040317107,0.29810223,-14.46,4.02,-45.3
1774512355104,-0.01436521,-0.9576807,9.045294,-0.10873401,0.028099801,0.29565877,-14.58,4.92,-45.12
1774512355126,0.095768064,-0.7230489,8.365341,-0.12339478,0.015882496,0.2846632,-15.12,4.56,-45.96
1774512355147,-0.1436521,-0.7565677,9.059659,-0.10751228,0.0061086523,0.23945917,-14.94,4.56,-45.66
1774512355166,-0.33518824,-0.8714894,9.02614,-0.21624629,0.10873401,0.23823744,-14.759999,4.7999997,-45.96
1774512355187,-0.22984336,-1.0773908,9.227253,-0.28344148,0.07819075,0.24801129,-14.82,4.7999997,-46.32
1774512355207,0.009576807,-1.13964,9.65821,-0.3042109,0.014660766,0.23090707,-14.099999,4.98,-45.78
1774512355227,0.30166942,-1.2497733,9.983821,-0.30298916,-0.008552114,0.19303341,-13.98,6.12,-45.78
1774512355249,0.79008657,-0.9672575,10.34774,-0.08307768,0.073303826,-0.004886922,-14.16,6.54,-45.66
1774512355269,0.8523358,-0.93373865,10.5680065,0.09896017,0.14782938,-0.06963864,-13.799999,7.02,-45.719997
1774512355291,0.7613561,-0.8283938,10.290278,0.25167647,0.15515977,-0.12095132,-14.5199995,7.3199997,-46.14
1774512355324,0.24420857,-0.038307227,8.90643,0.24923302,0.09162979,-0.16126843,-13.98,7.2,-46.86
1774512355345,0.272939,-0.023942016,9.461885,-0.018325957,0.16493362,-0.18081611,-14.16,6.54,-46.379997
1774512355365,0.36870706,-0.31603462,10.658986,-0.30909783,0.3042109,-0.20647246,-13.32,6.8999996,-46.44
1774512355386,0.7086837,-0.5793968,11.219229,-0.19914207,0.267559,-0.22235495,-13.38,6.72,-46.5
1774512355407,1.091756,-0.11971009,10.582372,0.28588495,0.036651913,-0.27122417,-13.74,6.42,-46.739998
1774512355426,1.0582372,0.17238252,8.992621,0.6719518,-0.15027285,-0.312763,-13.62,6.06,-46.98
1774512355446,1.3694834,0.37828386,8.049306,0.46670106,-0.172264,-0.21746802,-14.16,5.52,-46.92
1774512355467,1.7429788,0.80445176,8.710106,-0.056199603,-0.030543262,-0.13805555,-13.799999,5.46,-46.8
1774512355487,1.0199299,0.545878,9.615114,-0.32375857,0.062308256,-0.15760323,-13.2,5.7,-47.039997
1774512355507,0.1436521,0.18195933,10.113108,-0.36774087,0.018325957,-0.17715092,-13.44,5.8799996,-47.399998
1774512355551,-0.35434186,0.18674773,10.232818,0.14905111,0.09896017,-0.24556783,-14.04,5.4,-46.559998
1774512355570,-0.20111294,0.23463176,9.591172,0.23701571,0.0842994,-0.2406809,-14.4,5.16,-45.78
1774512355590,0.02873042,0.37828386,8.566454,0.16126843,0.0061086523,-0.23701571,-14.46,5.2799997,-45.12
1774512355611,0.35434186,0.5746084,8.087613,0.05131268,-0.010995574,-0.1966986,-14.4,5.8799996,-44.94
1774512355631,0.51714754,0.6560113,8.0924015,-0.018325957,-0.032986723,-0.13927728,-14.639999,5.22,-44.7
1774512355652,0.5602432,0.6560113,7.9583263,-0.17715092,-0.013439035,-0.08674286,-14.46,5.04,-44.879997
1774512355672,0.79008657,0.6847417,8.6813755,-0.31764993,-0.029321533,-0.07574729,-14.46,5.04,-45.66
1774512355692,0.79008657,0.6847417,8.6813755,-0.36896262,-0.065973446,-0.03176499,-13.92,5.04,-45.78
1774512355712,0.40701428,0.9720459,9.935937,-0.3555236,-0.09040806,0.019547688,-13.32,5.7599998,-46.44
1774512355732,0.15322891,1.0295067,10.31901,-0.20647246,-0.105068825,0.07452556,-12.719999,6.54,-46.32
1774512355753,0.12449849,1.2018893,10.299856,-0.081855945,-0.04642576,0.13439035,-12.24,6.8399997,-46.079998
1774512355772,0.06703765,1.2785037,10.170568,0.014660766,0.0012217305,0.15882497,-12.84,6.8399997,-46.379997
1774512355793,0.06703765,1.2785037,10.170568,0.118507855,0.030543262,0.19303341,-12.9,7.08,-46.26
1774512355814,0.090979666,1.4173675,9.696517,0.16371189,0.073303826,0.21868975,-13.32,7.14,-46.559998
1774512355834,0.1340753,1.3982137,9.404425,0.18692477,0.096516706,0.26633725,-13.2,7.2599998,-46.5
1774512355855,0.272939,1.3790601,9.519346,0.14049901,0.09407325,0.31764993,-12.48,7.44,-46.379997
1774512355876,0.4309563,1.4317327,10.055647,0.080634214,0.07819075,0.3652974,-12.36,7.3799996,-46.62
1774512355896,0.45010993,1.7669208,10.290278,0.095294975,0.07819075,0.376293,-12.179999,7.14,-46.68
1774512355918,0.34476504,1.2210429,10.500969,0.047647487,0.014660766,0.344528,-12.66,6.6,-46.32
1774512355939,0.59855044,0.8571242,11.209652,-0.07086037,-0.05375614,0.35308012,-12.3,6.96,-46.32
1774512355960,1.0295067,0.4309563,12.162544,-0.13805555,-0.12217305,0.3115413,-12.9,6.24,-46.379997
1774512355979,1.2689269,0.090979666,12.636597,-0.1563815,-0.19792034,0.22479841,-12.78,6.48,-46.5
1774512355999,0.9528923,-1.2641385,13.369223,-0.21135938,-0.14538592,0.16126843,-13.08,6.8399997,-47.399998
1774512356020,0.8283938,-1.8866309,13.666103,-0.1160644,-0.056199603,0.15271631,-13.08,6.8399997,-47.399998
1774512356040,0.7230489,-2.327164,12.885593,0.28344148,-0.05375614,0.10262536,-12.42,7.7999997,-46.98
1774512356060,0.38307226,-2.3463178,10.912771,0.6805039,0.021991149,0.073303826,-12.599999,7.8599997,-46.86
1774512356080,-0.02873042,-2.1164744,9.184157,0.8576548,0.06352998,0.062308256,-12.78,7.68,-46.739998
1774512356100,-0.39743748,-1.9536686,7.7189064,0.81000733,0.065973446,0.07574729,-12.78,7.68,-46.739998
1774512356121,-0.770933,-1.7717092,7.2544312,0.5839872,0.08307768,0.09896017,-12.9,6.3599997,-47.399998
1774512356142,-1.1300632,-1.8004397,7.3789296,0.27977628,0.16615535,0.11362094,-13.2,5.04,-47.16
1774512356162,-1.0965444,-1.8435353,7.9583263,-0.036651913,0.16737708,0.14294247,-12.54,4.68,-47.46
1774512356183,-0.80924016,-1.9009962,8.595184,-0.15027285,0.09040806,0.119729586,-12.12,4.62,-47.64
1774512356202,-0.7134721,-2.0111294,8.829816,-0.105068825,0.02687807,0.07452556,-12.48,3.8999999,-47.64
1774512356223,-0.60333884,-1.8483237,8.566454,-0.07941248,-0.0012217305,0.062308256,-11.94,4.14,-47.579998
1774512356244,-0.1436521,-1.5705963,8.494628,-0.17470746,0.021991149,0.07696902,-12.12,4.02,-47.579998
1774512356264,0.023942016,-1.3263878,8.815451,-0.28710666,0.07574729,0.081855945,-12.059999,3.72,-47.399998
1774512356285,-0.17238252,-1.13964,9.184157,-0.30543262,0.1685988,0.112399206,-12.059999,3.72,-47.34
1774512356305,-0.51235914,-0.9768343,9.131485,-0.25411993,0.09773844,0.1600467,-12.3,3.84,-47.46
1774512356328,-0.63206923,-0.7086837,8.48984,-0.29443705,-0.02443461,0.17715092,-12.36,4.3199997,-47.52
1774512356350,-0.6895301,-0.7182605,9.275137,-0.3885103,0.09773844,0.15027285,-12.48,4.5,-47.579998
1774512356369,-0.80924016,-0.8283938,9.313444,-0.35430184,0.06352998,0.12705997,-12.059999,5.16,-48.12
1774512356390,-0.58897364,-0.94331545,9.442732,-0.29810223,0.0,0.07941248,-12.42,5.4,-48.719997
1774512356410,-0.30645782,-0.9672575,9.56723,-0.27977628,-0.034208454,0.042760566,-12.179999,5.8199997,-48.899998
1774512356429,-0.07182605,-1.0007763,9.969456,-0.26267207,-0.02687807,0.009773844,-12.42,6.48,-49.2
1774512356450,0.10534488,-1.0151415,10.275913,-0.2284636,-0.018325957,-0.035430185,-12.599999,6.72,-49.079998
1774512356472,0.35434186,-0.9720459,10.486604,-0.1966986,-0.029321533,-0.105068825,-12.36,6.8999996,-49.079998
1774512356492,0.4261679,-0.7517793,10.941502,-0.18203785,0.058643065,-0.18936823,-12.24,6.96,-49.26
1774512356512,0.32561144,-0.23942018,10.960655,0.007330383,0.20158553,-0.28955013,-12.42,6.66,-49.079998
1774512356533,0.1436521,0.009576807,10.204087,0.26511553,0.16126843,-0.36651915,-13.139999,6.12,-48.66
1774512356553,0.0,-0.23942018,9.916783,0.3726278,-0.058643065,-0.3933972,-13.2,6.24,-48.42
1774512356572,0.33039984,-0.3878607,10.548853,0.32986724,-0.10995574,-0.38240165,-13.679999,6.0,-47.879997
1774512356593,0.6464345,-0.7134721,10.208876,0.50701815,-0.065973446,-0.3921755,-13.799999,6.06,-48.3
1774512356613,1.0726024,-0.07182605,8.724471,0.75991637,-0.13439035,-0.4569272,-12.599999,6.8399997,-48.12
1774512356633,1.3455414,0.35434186,7.335834,0.8063421,-0.2443461,-0.548557,-12.78,6.2999997,-48.6
1774512356654,1.5801731,0.40222588,7.101202,0.41416663,-0.26633725,-0.53023106,-12.12,6.06,-48.719997
1774512356675,1.4939818,0.34476504,8.130709,-0.24678956,-0.07819075,-0.44837508,-11.82,5.1,-48.48
1774512356695,0.9959879,0.04309563,9.859323,-0.75502944,0.057421334,-0.37384954,-12.719999,4.08,-48.84
1774512356715,-0.23942018,-0.22026655,11.358093,-0.816116,0.15760323,-0.2932153,-12.66,3.48,-47.879997
1774512356735,-0.7374141,0.17238252,11.358093,-0.49235737,0.16615535,-0.18325958,-12.78,3.3,-48.3
1774512356755,-0.7278373,0.4165911,10.7356,-0.111177474,0.12461651,-0.21013765,-12.719999,3.78,-48.3
1774512356776,-0.7134721,0.9720459,9.270349,0.204029,0.09773844,-0.28588495,-12.36,4.14,-48.18
1774512356795,-0.7374141,1.0486604,8.1163435,0.30543262,0.065973446,-0.3494149,-11.94,4.74,-48.84
1774512356816,-0.10534488,1.13964,7.4842744,0.18081611,0.02565634,-0.30298916,-12.48,4.68,-48.84
1774512356835,0.45010993,0.93373865,7.8625584,0.015882496,-0.05497787,-0.29810223,-12.42,4.56,-48.66
1774512356856,0.39743748,0.58418524,8.197746,-0.028099801,-0.03176499,-0.22724187,-12.0,4.7999997,-48.899998
1774512356877,0.3878607,0.4405331,8.0924015,-0.10995574,0.03176499,-0.13561209,-11.82,4.3199997,-48.42
1774512356899,0.33997664,0.30645782,8.384495,-0.21746802,0.052534413,-0.07452556,-11.04,4.5,-48.12
1774512356919,0.20111294,0.37828386,8.604761,-0.30909783,0.05497787,-0.018325957,-11.4,3.84,-48.239998
1774512356940,0.08140286,0.49320555,9.035717,-0.40683624,0.009773844,0.02687807,-11.82,3.4199998,-48.539997
1774512356960,0.10534488,0.81402856,9.490616,-0.43127087,-0.034208454,0.080634214,-12.599999,3.4199998,-49.32
1774512356980,0.1340753,1.1923125,10.036493,-0.39461896,-0.080634214,0.10873401,-13.5,4.02,-50.1
1774512357000,0.23942018,1.541866,10.371682,-0.32253686,-0.095294975,0.13194689,-13.5,4.62,-50.039997
1774512357020,0.48841715,1.7717092,10.6877165,-0.267559,-0.09407325,0.13683382,-14.5199995,4.02,-49.739998
1774512357039,0.5746084,1.9871874,11.300632,-0.21868975,-0.06352998,0.09407325,-14.219999,5.16,-49.8
1774512357060,0.56982,1.9488802,11.836933,-0.080634214,-0.021991149,0.04520403,-13.32,5.58,-49.2
1774512357081,0.44532153,1.70946,11.918336,0.15027285,-0.029321533,-0.0036651916,-13.86,5.22,-48.84
1774512357102,0.18674773,1.5131354,11.506534,0.39706242,-0.089186326,0.010995574,-13.38,6.18,-48.96
1774512357122,-0.110133275,0.9576807,11.09473,0.4251622,-0.17348573,0.09285152,-13.38,5.7599998,-48.96
1774512357144,0.0,0.36391866,11.401189,0.28588495,-0.18692477,0.25534168,-13.259999,5.58,-49.02
1774512357164,0.60333884,0.009576807,11.745954,0.14294247,-0.1685988,0.32498032,-13.32,5.3399997,-49.739998
1774512357185,1.0199299,-0.45489833,11.96622,0.12095132,-0.21991149,0.25900686,-13.62,4.62,-49.68
1774512357206,0.89543146,-1.8387469,12.076353,0.043982297,-0.23090707,0.15760323,-13.799999,4.44,-50.039997
1774512357227,0.6943185,-2.528277,12.354081,-0.035430185,-0.17470746,0.119729586,-13.98,4.62,-49.98
1774512357248,0.46447513,-2.930503,12.162544,0.50946164,0.002443461,0.09162979,-14.04,4.62,-49.44
1774512357269,0.18674773,-3.0071173,10.989386,0.69027776,0.13072516,0.13316862,-14.219999,4.5,-49.98
1774512357289,-0.20590134,-2.7246015,9.504981,0.7122689,0.17470746,0.18448131,-14.58,3.9599998,-49.14
1774512357309,-0.59855044,-2.5617957,8.197746,0.5742133,0.15271631,0.22724187,-14.04,3.9599998,-49.079998
1774512357330,-1.0151415,-2.456451,7.455544,0.29565877,0.13805555,0.28588495,-14.04,3.0,-49.379997
1774512357350,-0.842759,-1.9153614,7.7189064,0.034208454,0.12095132,0.3005457,-13.679999,2.28,-49.32
1774512357370,-0.7517793,-1.8914193,8.063671,-0.10262536,0.13805555,0.2761111,-13.559999,1.56,-50.34
1774512357390,-0.7517793,-1.8914193,8.063671,-0.15271631,0.08674286,0.22235495,-13.559999,0.48,-50.399998
1774512357411,-0.1388637,-1.6041151,8.446744,-0.18570304,0.0036651916,0.15393804,-13.08,1.02,-50.219997
1774512357432,0.11971009,-1.5179238,8.7771435,-0.22357668,-0.037873644,0.1160644,-13.0199995,0.84,-49.92
1774512357453,0.25378537,-1.4173675,8.911219,-0.20769419,-0.02687807,0.12217305,-12.719999,1.14,-49.44
1774512357474,0.272939,-1.2066777,8.820239,-0.17470746,-0.0012217305,0.17104226,-12.96,1.74,-49.68
1774512357493,0.08619126,-1.0390835,8.825027,-0.19792034,-0.042760566,0.23457226,-12.96,1.8,-50.1
1774512357513,-0.19153613,-1.1013328,8.714894,-0.2602286,-0.034208454,0.31520647,-12.96,2.3999999,-49.8
1774512357535,-0.41180268,-1.0247183,9.404425,-0.3115413,-0.11362094,0.3640757,-13.2,2.76,-49.8
1774512357555,-0.59855044,-1.2114661,9.423578,-0.41416663,0.06352998,0.38240165,-13.559999,2.46,-49.68
1774512357575,-0.5315128,-1.3359646,9.782708,-0.45204028,0.05009095,0.3408628,-13.679999,2.6399999,-49.5
1774512357595,-0.30645782,-1.3790601,10.036493,-0.4202753,-0.004886922,0.26633725,-13.92,2.82,-49.68
1774512357615,-0.02873042,-1.2018893,10.381259,-0.36896262,-0.021991149,0.17837265,-13.799999,3.36,-49.68
1774512357636,0.21547815,-1.091756,10.596737,-0.29077184,0.0,0.08674286,-13.799999,3.78,-49.5
1774512357656,0.46926352,-1.0055647,10.520123,-0.21380283,0.057421334,0.028099801,-13.86,4.2,-49.2
1774512357684,0.60812724,-0.7182605,10.644621,-0.13439035,0.06963864,-0.021991149,-14.099999,4.68,-49.079998
1774512357703,0.56982,-0.5315128,10.82658,-0.029321533,0.15027285,-0.073303826,-14.16,4.92,-49.379997
1774512357724,0.48841715,-0.49799395,10.496181,0.12950343,0.15760323,-0.10140363,-14.7,4.8599997,-49.68
1774512357743,0.45489833,-0.36870706,10.232818,0.29443705,0.04520403,-0.14782938,-15.36,4.3199997,-50.1
1774512357763,0.5746084,-0.9911995,10.223241,0.3286455,-0.008552114,-0.17592919,-15.179999,4.44,-50.52
1774512357784,1.0151415,-1.3694834,10.146626,0.2773328,0.064751714,-0.19547687,-15.059999,4.2599998,-50.52
1774512357804,1.3263878,-0.9768343,9.65821,0.40317106,0.062308256,-0.28710666,-14.82,4.14,-50.64
1774512357824,1.4556746,-0.45010993,8.6095495,0.68416905,0.034208454,-0.40683624,-14.219999,4.2599998,-51.0
1774512357845,1.3120226,-0.30166942,7.52737,0.26145032,-0.04886922,-0.376293,-13.98,3.6599998,-51.36
1774512357865,1.4891934,0.062249243,7.2544312,0.26145032,-0.04886922,-0.376293,-14.639999,2.76,-51.3
1774512357884,1.2449849,-0.1436521,8.212111,-0.25900686,-0.13805555,-0.35063666,-14.219999,2.34,-51.3
1774512357905,0.7469909,-0.25378537,9.059659,-0.7965683,-0.095294975,-0.18692477,-14.5199995,1.8,-50.64
1774512357924,0.12928689,-0.19632454,9.969456,-0.7635816,0.09285152,-0.14538592,-14.099999,2.04,-50.28
1774512357945,-0.24899697,-0.095768064,11.046846,-0.7635816,0.09285152,-0.14538592,-13.559999,2.58,-50.52
1774512357965,-0.2633622,0.23463176,11.085154,-0.039095376,0.24678956,-0.2846632,-13.62,3.36,-50.46
1774512357986,-0.33518824,0.31603462,9.9550905,0.09040806,0.09162979,-0.40194935,-13.62,3.6599998,-50.64
1774512358006,-0.40222588,0.48841715,8.973468,0.06352998,0.014660766,-0.4288274,-13.799999,3.6,-50.7
1774512358027,-0.10055647,0.5793968,8.48984,-0.030543262,-0.040317107,-0.39828414,-13.679999,3.72,-50.64
1774512358046,0.17717093,0.4357447,8.576031,-0.05497787,-0.007330383,-0.28099802,-13.5,3.48,-50.579998
1774512358067,0.45010993,0.34955344,8.647857,-0.08552113,0.06963864,-0.2003638,-13.0199995,3.3,-50.94
1774512358088,0.46447513,0.22026655,8.676587,-0.118507855,0.10262536,-0.096516706,-12.96,3.6,-50.94
1774512358108,0.37828386,0.095768064,8.872911,-0.17592919,0.04886922,-0.032986723,-12.78,3.12,-50.82
1774512358127,0.110133275,0.17238252,8.930372,-0.28099802,-0.03176499,0.009773844,-13.0199995,2.82,-50.7
1774512358147,-0.047884032,0.25857377,9.404425,-0.31398472,-0.036651913,0.047647487,-13.559999,2.82,-50.34
1774512358167,0.12928689,0.51235914,10.127473,-0.19547687,-0.059864793,0.081855945,-13.62,2.28,-50.34
1774512358188,0.2825158,0.770933,10.405201,-0.029321533,-0.06352998,0.095294975,-13.86,2.8799999,-50.399998
1774512358209,0.4165911,0.9816227,10.275913,0.064751714,-0.042760566,0.07941248,-13.92,2.8799999,-50.34
1774512358229,0.19153613,1.043872,10.266336,0.09773844,0.02321288,0.07086037,-13.86,3.0,-50.64
1774512358250,0.10055647,0.90979666,10.352529,0.12217305,0.07819075,0.10262536,-13.62,3.72,-50.879997
1774512358270,0.009576807,0.79966336,10.462662,0.15271631,0.056199603,0.16493362,-13.559999,3.3,-51.36
1774512358291,0.04309563,0.866701,10.606314,0.22357668,-0.002443461,0.22357668,-13.38,3.6,-51.78
1774512358313,0.16759412,0.9768343,10.654198,0.2761111,-0.02443461,0.23823744,-13.5,3.06,-51.84
1774512358333,0.32561144,0.45968673,11.166556,0.26267207,0.0061086523,0.22724187,-13.38,2.58,-51.96
1774512358353,0.45010993,0.45010993,11.310209,0.2846632,0.043982297,0.19181168,-13.679999,1.9799999,-51.719997
1774512358374,0.6991069,0.15801731,11.21444,0.29565877,0.032986723,0.087964594,-13.74,1.86,-52.14
1774512358396,0.7326257,-0.5602432,11.099519,0.23579398,-0.030543262,-0.035430185,-13.74,2.04,-51.84
1774512358417,0.7086837,-1.6759412,11.482592,0.014660766,-0.081855945,-0.056199603,-13.679999,1.86,-51.96
1774512358437,0.7469909,-2.2457612,12.109872,-0.18692477,-0.10995574,-0.03176499,-13.559999,1.9799999,-52.559998
1774512358458,0.5650316,-2.7629087,12.35887,-0.037873644,-0.14538592,-0.021991149,-13.44,0.9,-52.44
1774512358478,0.5793968,-2.8682537,11.51611,0.28221974,-0.07574729,0.004886922,-13.86,0.71999997,-52.14
1774512358498,0.31124622,-2.27928,9.940725,0.5571091,0.018325957,-0.012217305,-13.559999,0.29999998,-51.18
1774512358519,-0.29688102,-1.9488802,8.350976,0.7318166,0.012217305,-0.02321288,-13.74,-0.29999998,-51.059998
1774512358540,-0.7326257,-1.7238252,7.28795,0.625526,0.010995574,0.034208454,-14.099999,-1.02,-51.12
1774512358562,-0.93852705,-1.5562311,7.225701,0.34330627,0.06841691,0.08307768,-13.98,-1.62,-50.82
1774512358582,-1.3215994,-1.6807296,7.6231384,0.105068825,0.15393804,0.112399206,-14.34,-2.28,-51.3
1774512358603,-1.340753,-1.9009962,8.034941,-0.05497787,0.17959438,0.13927728,-14.099999,-2.46,-50.7
1774512358625,-1.115698,-2.0973208,8.461109,-0.20525073,0.10140363,0.118507855,-13.139999,-2.1,-50.039997
1774512358645,-1.0103531,-2.27928,8.882488,-0.20525073,0.10140363,0.118507855,-12.78,-1.74,-50.28
1774512358666,-0.7661445,-2.3415294,9.030929,-0.30665436,0.034208454,0.16737708,-12.42,-1.14,-50.039997
1774512358687,-0.61291564,-2.2840683,9.3182335,-0.36163223,0.028099801,0.25289822,-12.599999,-1.02,-50.94
1774512358709,-0.30645782,-2.054225,9.662998,-0.30909783,0.035430185,0.31764993,-12.84,-1.02,-51.42
1774512358729,-0.14844051,-1.3072342,9.730036,-0.13439035,-0.15271631,0.37018433,-13.2,-0.96,-51.3
1774512358749,-0.320823,-1.1300632,9.251195,-0.14172074,0.03176499,0.34697145,-13.5,-0.9,-51.539997
1774512358770,-0.4213795,-0.9720459,9.045294,-0.26511553,0.16126843,0.30787608,-13.559999,-0.96,-51.239998
1774512358791,-0.272939,-0.94810385,9.040505,-0.29077184,0.15760323,0.2687807,-14.04,-0.48,-51.239998
1774512358812,-0.19153613,-1.1013328,9.284714,-0.2919936,0.059864793,0.21991149,-13.86,-0.42,-51.48
1774512358833,0.01436521,-1.1444284,9.749189,-0.29810223,-0.05131268,0.18692477,-13.86,-0.29999998,-51.539997
1774512358853,0.40701428,-1.1492168,10.400413,-0.26511553,-0.10140363,0.13439035,-13.86,0.29999998,-51.42
1774512358874,0.38307226,-1.3120226,10.491392,-0.13683382,-0.080634214,0.05375614,-13.799999,0.65999997,-51.36
1774512358896,0.30645782,-1.3551182,10.649409,-0.029321533,-0.07696902,-0.037873644,-13.98,1.0799999,-51.239998
1774512358917,0.39264908,-1.340753,10.769119,0.06963864,0.042760566,-0.1282817,-13.38,2.28,-51.36
1774512358937,0.36870706,-0.8810662,10.649409,0.25900686,0.12950343,-0.21868975,-13.799999,1.5,-51.42
1774512358956,0.11971009,-0.6751649,9.648633,0.5021312,0.0720821,-0.30543262,-14.46,1.3199999,-51.48
1774512358977,0.023942016,-0.89064306,9.481039,0.44837508,-0.06963864,-0.32986724,-14.639999,0.42,-51.36
1774512358997,0.02873042,-1.0821792,9.964667,0.22479841,-0.056199603,-0.2968805,-14.82,-0.12,-51.42
1774512359017,0.17717093,-1.5179238,10.266336,0.14660765,0.009773844,-0.2724459,-14.82,-0.12,-51.42
1774512359036,0.6703765,-0.93373865,10.0029745,0.3213151,0.021991149,-0.2919936,-12.9,-0.48,-51.3
1774512359057,0.6464345,-0.29209262,8.576031,0.65240407,0.008552114,-0.38362336,-12.48,-0.48,-51.6
1774512359078,0.58897364,0.047884032,7.07726,0.7293731,-0.111177474,-0.4007276,-12.54,-1.38,-51.78
1774512359097,0.9816227,0.61770403,6.9958572,0.3359759,-0.14294247,-0.33353242,-12.36,-1.62,-51.36
1774512359118,1.2449849,1.0007763,7.656657,-0.1001819,-0.080634214,-0.30176744,-13.32,-2.82,-51.719997
1774512359138,0.7661445,0.9768343,8.652645,-0.38240165,-0.04886922,-0.27488935,-13.259999,-2.82,-51.48
1774512359159,0.25857377,1.0773908,9.021352,-0.5900958,-0.057421334,-0.24190263,-13.259999,-2.82,-51.3
1774512359178,-0.2681506,0.59855044,10.271125,-0.8454375,-0.017104227,-0.23579398,-13.2,-2.6399999,-51.539997
1774512359199,-0.6799533,0.24899697,11.391612,-0.8527679,0.15515977,-0.21991149,-13.32,-2.3999999,-51.6
1774512359220,-0.9911995,0.2873042,11.57836,-0.61575216,0.2687807,-0.24190263,-13.5,-2.1599998,-51.48
1774512359240,-0.9959879,0.5554548,10.831368,-0.1563815,0.20280726,-0.2883284,-13.44,-1.4399999,-51.48
1774512359260,-0.6847417,0.9672575,9.706094,0.17348573,0.07696902,-0.25900686,-13.44,-0.53999996,-51.6
1774512359280,-0.30645782,1.2210429,8.791509,0.25167647,0.015882496,-0.1881465,-12.84,0.48,-51.78
1774512359299,0.10055647,1.2785037,8.528147,0.21746802,-0.032986723,-0.10995574,-12.84,0.06,-52.199997
1774512359319,0.32561144,1.0582372,8.42759,0.1441642,-0.002443461,-0.07941248,-12.66,-0.17999999,-51.84
1774512359339,0.24420857,0.7326257,8.499416,0.030543262,0.034208454,-0.06841691,-12.66,-1.02,-51.539997
1774512359361,0.110133275,0.6607997,8.920795,-0.07941248,0.012217305,-0.04153884,-12.599999,-1.38,-51.3
1774512359380,0.06703765,0.58897364,9.255983,-0.13439035,-0.018325957,0.012217305,-12.599999,-1.38,-50.82
1774512359402,0.24420857,0.7326257,9.80665,-0.18692477,-0.07086037,0.057421334,-12.78,-1.4399999,-50.94
1774512359423,0.272939,0.8714894,10.486604,-0.17959438,-0.08552113,0.064751714,-12.9,-1.14,-51.42
1774512359444,0.16280572,1.0103531,10.769119,-0.07696902,-0.06719518,0.073303826,-13.559999,-1.3199999,-51.719997
1774512359464,0.076614454,1.2066777,10.635044,0.062308256,-0.0061086523,0.07819075,-13.98,-1.14,-52.02
1774512359484,0.047884032,1.4413095,10.400413,0.15882497,0.058643065,0.09162979,-14.04,-1.14,-52.02
1774512359505,0.047884032,1.5131354,10.314221,0.2968805,0.062308256,0.16982053,-13.559999,-1.0799999,-51.899998
1774512359526,-0.009576807,1.4700398,10.103531,0.312763,-0.042760566,0.21624629,-12.96,-0.96,-51.539997
1774512359547,0.047884032,1.6424223,10.055647,0.23335053,-0.08674286,0.25045475,-12.42,-1.1999999,-51.42
1774512359567,-0.06703765,1.2162545,10.184934,0.06352998,-0.08674286,0.31398472,-12.54,-1.74,-51.539997
1774512359587,0.033518825,0.5506664,10.994174,-0.06963864,-0.10873401,0.32986724,-13.0199995,-2.3999999,-51.0
1774512359609,0.5793968,-0.46926352,12.449849,-0.037873644,-0.17959438,0.25534168,-12.84,-2.34,-51.12
1774512359629,0.30645782,-1.6136919,12.5264635,0.012217305,-0.17837265,0.17104226,-13.32,-2.6399999,-50.64
1774512359650,0.04309563,-2.4516625,12.521675,0.03176499,-0.15515977,0.17592919,-13.62,-2.6399999,-50.7
1774512359671,0.1436521,-2.60968,12.167333,0.18570304,-0.10140363,0.17104226,-13.259999,-1.92,-50.46
1774512359691,0.05267244,-2.7246015,11.204864,0.5119051,-0.0012217305,0.14294247,-13.98,-1.9799999,-50.64
1774512359712,-0.038307227,-2.4372973,9.548077,0.816116,0.096516706,0.12950343,-14.219999,-1.8,-50.76
1774512359732,-0.4261679,-2.2122424,7.967903,0.8527679,0.13805555,0.12705997,-14.099999,-2.1599998,-50.579998
1774512359754,-0.89064306,-1.9680338,7.086837,0.59864795,0.15882497,0.1600467,-14.46,-3.12,-51.0
1774512359775,-1.1348516,-1.7669208,7.2352777,0.24312437,0.10140363,0.18692477,-14.46,-4.14,-50.46
1774512359796,-1.1444284,-1.7717092,7.73806,-0.013439035,-0.013439035,0.21502456,-14.219999,-4.7999997,-50.7
1774512359817,-0.90500826,-1.8674773,8.135497,-0.13194689,-0.080634214,0.2125811,-13.62,-4.2599998,-49.86
1774512359839,-0.545878,-1.733402,8.226477,-0.172264,-0.10873401,0.16249016,-13.08,-4.14,-49.44
1774512359858,0.019153614,-1.5466543,8.537724,-0.20769419,-0.105068825,0.08552113,-12.84,-3.72,-49.44
1774512359881,0.23942018,-1.3742718,8.700529,-0.22602014,-0.058643065,0.040317107,-13.139999,-3.84,-50.16
1774512359901,0.15801731,-1.3551182,8.734048,-0.267559,-0.064751714,0.06963864,-13.5,-4.2,-49.98
1774512359921,-0.25857377,-1.4460979,8.911219,-0.39706242,-0.065973446,0.16249016,-14.04,-4.02,-50.16
1774512359941,-0.7613561,-1.5610195,9.193734,-0.47647488,-0.09896017,0.30298916,-14.46,-3.6599998,-49.68
1774512359962,-0.62728083,-1.2785037,9.174581,-0.453262,-0.30909783,0.43982297,-14.759999,-3.24,-49.68
1774512359983,-0.641646,-1.2018893,9.591172,-0.6560693,0.047647487,0.36774087,-15.059999,-2.7,-49.68
1774512360002,-0.5793968,-1.2785037,9.959879,-0.6560693,0.047647487,0.36774087,-15.179999,-1.86,-49.86
1774512360023,-0.25378537,-1.3551182,10.022128,-0.5510005,0.002443461,0.27977628,-15.299999,-1.3199999,-49.98
1774512360043,0.110133275,-1.5179238,10.199299,-0.35308012,-0.19303341,0.18081611,-15.299999,-0.48,-49.559998
1774512360065,0.35434186,-1.6950948,10.400413,-0.26633725,-0.16493362,0.17592919,-15.12,0.42,-49.44
1774512360086,0.7134721,-1.4460979,10.6877165,-0.119729586,-0.058643065,0.10629055,-15.839999,0.48,-49.26
1774512360107,0.94331545,-1.163582,10.611102,-0.004886922,0.030543262,0.0012217305,-16.32,0.9,-49.26
1774512360129,0.6703765,-0.9576807,10.160992,0.081855945,0.11362094,-0.10873401,-16.44,1.14,-49.2
1774512360149,0.37349546,-0.90500826,9.911995,0.20280726,0.17348573,-0.21746802,-16.619999,1.38,-49.62
1774512360170,0.1436521,-0.58897364,9.375694,0.27122417,0.13439035,-0.2761111,-16.68,1.5,-49.26
1774512360190,0.08140286,-0.60812724,9.3661175,0.20525073,0.065973446,-0.28710666,-16.5,1.0799999,-49.26
1774512360210,0.2681506,-1.2210429,10.055647,0.095294975,0.065973446,-0.27122417,-16.56,0.35999998,-49.92
1774512360230,0.6512229,-1.2306197,10.405201,0.17348573,0.14294247,-0.24556783,-16.74,0.12,-50.46
1774512360250,1.1683705,-0.6943185,9.605537,0.42394048,0.17959438,-0.27855456,-16.26,-0.24,-51.12
1774512360270,1.3359646,-0.062249243,8.250419,0.5900958,0.07696902,-0.3371976,-15.839999,0.0,-51.66
1774512360291,1.1923125,0.19153613,7.5321584,0.3933972,-0.02443461,-0.32620203,-15.48,-0.12,-51.18
1774512360312,1.316811,0.38307226,7.8050976,-0.05131268,-0.073303826,-0.24923302,-15.0,-0.48,-50.76
1774512360332,1.2018893,0.4357447,8.911219,-0.47891834,-0.081855945,-0.27000242,-14.58,-0.53999996,-50.879997
1774512360352,0.4405331,0.10055647,10.28549,-0.68783426,-0.056199603,-0.33353242,-14.7,-1.14,-50.7
1774512360373,-0.39743748,-0.30166942,11.224017,-0.6291912,0.10873401,-0.32253686,-14.94,-1.4399999,-50.76
1774512360393,-0.9959879,-0.51235914,11.334151,-0.34697145,0.18448131,-0.2761111,-15.24,-1.74,-50.399998
1774512360415,-0.89064306,-0.21547815,10.510546,-0.004886922,0.16371189,-0.22968534,-15.66,-1.3199999,-50.399998
1774512360435,-0.521936,0.10055647,9.500193,0.18325958,0.06719518,-0.21868975,-16.08,-1.5,-50.219997
1774512360456,0.0047884034,0.47884035,8.858546,0.2003638,-0.010995574,-0.18570304,-16.199999,-1.1999999,-50.34
1774512360476,0.36870706,0.6560113,8.748413,0.14172074,-0.04153884,-0.16737708,-15.9,-1.5,-50.28
1774512360496,0.58897364,0.6368576,8.671799,0.09773844,-0.018325957,-0.1282817,-15.36,-1.38,-49.98
1774512360517,0.6943185,0.5267244,8.63828,0.018325957,0.02687807,-0.09040806,-15.36,-1.38,-49.98
1774512360537,0.62249243,0.40222588,8.911219,-0.05131268,0.030543262,-0.06963864,-14.759999,-0.59999996,-49.98
1774512360556,0.4213795,0.37349546,9.169792,-0.061086524,0.0036651916,-0.05009095,-14.46,-0.53999996,-49.8
1774512360576,0.2681506,0.45010993,9.284714,-0.062308256,-0.035430185,-0.014660766,-14.28,-0.29999998,-50.219997
1774512360597,0.12928689,0.59376204,9.509769,-0.07086037,-0.07696902,0.04153884,-14.58,-0.78,-50.28
1774512360617,0.22026655,0.7757214,9.576807,-0.03176499,-0.09285152,0.10995574,-14.7,-0.71999997,-50.399998
1774512360636,0.5650316,0.94810385,9.691729,0.02321288,-0.065973446,0.14905111,-15.48,-1.3199999,-50.28
1774512360657,0.80445176,1.13964,9.758766,0.08674286,-0.008552114,0.10995574,-15.96,-1.5,-49.68
1774512360677,0.29209262,1.0055647,9.380483,0.10140363,0.02565634,0.09407325,-16.38,-1.9799999,-49.62
1774512360699,0.19632454,1.0582372,9.519346,0.07819075,0.02076942,0.118507855,-16.02,-1.1999999,-49.5
1774512360719,0.24899697,1.0726024,9.792285,0.04520403,0.061086524,0.16615535,-16.02,-1.5,-49.559998
1774512360740,0.30166942,1.2593501,10.242394,0.06841691,0.04886922,0.20647246,-15.9,-1.1999999,-49.98
1774512360761,0.44532153,1.541866,10.338163,0.119729586,0.010995574,0.204029,-16.08,-1.4399999,-49.379997
1774512360782,0.46926352,1.163582,10.903194,0.010995574,0.02687807,0.15393804,-17.22,-2.1599998,-49.559998
1774512360802,0.5554548,0.7038953,11.674128,0.009773844,-0.02443461,0.15515977,-18.0,-2.34,-49.98
1774512360822,0.8523358,0.22026655,12.397177,0.07452556,-0.05131268,0.056199603,-18.66,-2.52,-50.28
1774512360842,0.9720459,-0.34955344,12.583924,0.04153884,-0.095294975,-0.036651913,-19.199999,-2.28,-51.18
1774512360863,0.7326257,-1.6998832,12.966996,0.08552113,-0.11728613,-0.059864793,-18.779999,-2.1,-51.899998
1774512360884,0.641646,-2.2505496,13.067553,0.32253686,-0.11484267,-0.11484267,-18.9,-2.1,-51.899998
1774512360904,0.79487497,-2.5713725,12.531252,0.56077427,-0.05131268,-0.17104226,-19.14,-2.52,-51.48
1774512360925,0.80445176,-2.753332,11.233594,0.7367035,0.08307768,-0.19058995,-19.26,-2.6399999,-51.66
1774512360945,0.4261679,-2.2840683,9.758766,0.79412484,0.13683382,-0.17715092,-19.8,-3.48,-51.239998
1774512360966,-0.866701,-2.0111294,6.9862804,0.6206391,0.10751228,-0.08307768,-19.439999,-3.78,-51.239998
1774512360987,-1.1827357,-1.757344,6.919243,0.3652974,0.12095132,-0.012217305,-18.96,-4.62,-51.059998
1774512361007,-1.2880806,-1.8770541,6.861782,0.034208454,0.06352998,0.065973446,-18.72,-5.8799996,-50.64
1774512361028,-1.163582,-1.9536686,7.6614456,-0.14294247,-0.036651913,0.09896017,-17.94,-5.8199997,-49.98
1774512361049,-0.7374141,-2.1212628,8.154651,-0.24190263,-0.07452556,0.08674286,-16.56,-4.8599997,-49.379997
1774512361069,-0.48841715,-2.2218192,8.614338,-0.35185838,-0.04153884,0.029321533,-16.56,-4.5,-49.68
1774512361089,-0.3878607,-2.3894134,9.107543,-0.39950588,-0.02076942,0.004886922,-15.66,-3.4199998,-49.2
1774512361109,-0.19632454,-2.3223755,9.562442,-0.40194935,-0.042760566,0.064751714,-16.02,-3.3,-49.86
1774512361129,-0.16759412,-1.8770541,9.581595,-0.33108896,-0.02687807,0.14049901,-17.699999,-4.38,-50.34
1774512361149,-0.29688102,-1.6519991,9.500193,-0.2846632,-0.096516706,0.21624629,-17.58,-3.6599998,-49.98
1774512361171,-0.24420857,-1.1492168,9.351752,-0.23823744,-0.14538592,0.27366763,-18.72,-3.8999999,-50.82
1774512361191,-0.45010993,-0.9624691,9.576807,-0.26145032,-0.02076942,0.2565634,-19.38,-4.38,-50.46
1774512361211,-0.34476504,-0.79487497,9.423578,-0.27366763,0.06841691,0.2284636,-19.199999,-3.84,-50.16
1774512361232,-0.4405331,-0.8475474,9.346964,-0.2761111,0.10995574,0.16126843,-19.38,-3.84,-50.039997
1774512361251,-0.6464345,-1.1875241,9.572019,-0.32253686,0.10262536,0.1160644,-18.24,-2.7,-49.559998
1774512361273,-0.47405192,-1.3838485,10.055647,-0.33475417,0.05009095,0.13927728,-17.46,-1.68,-49.32
1774512361293,-0.18674773,-1.5658079,10.6158905,-0.2761111,-0.02321288,0.14538592,-16.92,-0.78,-49.02
1774512361313,0.12928689,-1.5179238,10.836157,-0.1966986,-0.05497787,0.112399206,-17.279999,-0.42,-49.44
1774512361333,0.20111294,-1.3790601,10.836157,-0.09773844,-0.028099801,0.02443461,-17.52,-0.35999998,-49.14
1774512361353,0.033518825,-1.3359646,10.524911,0.028099801,0.061086524,-0.04153884,-17.4,0.35999998,-49.44
1774512361373,0.24420857,-1.0199299,10.409989,0.15393804,0.12339478,-0.07696902,-17.699999,0.42,-49.92
1774512361392,0.4357447,-0.7278373,10.16578,0.3042109,0.18936823,-0.13316862,-17.52,0.78,-50.16
1774512361413,0.4357447,-0.4309563,9.749189,0.5155703,0.14049901,-0.20647246,-18.18,-0.06,-50.1
1774512361433,0.79487497,-0.4405331,9.308656,0.6377433,0.040317107,-0.2883284,-18.119999,-0.48,-49.8
1774512361459,1.0390835,-0.46926352,8.968679,0.6010914,-0.007330383,-0.42394048,-17.52,-1.8,-49.14
1774512361479,1.1971009,-0.44532153,8.63828,0.55833083,-0.03176499,-0.52778757,-16.56,-1.8,-49.559998
1774512361499,0.9672575,0.19632454,8.159439,0.56321776,-0.0036651916,-0.54611355,-16.02,-2.82,-49.739998
1774512361520,1.0630256,0.545878,7.8290396,0.37751472,-0.03176499,-0.48380527,-15.12,-2.8799999,-49.92
1774512361540,1.2306197,0.30645782,8.810662,-0.052534413,-0.056199603,-0.41538838,-14.58,-3.36,-49.86
1774512361561,0.7422025,0.22026655,9.821015,-0.4092797,0.015882496,-0.35796702,-14.46,-3.36,-49.86
1774512361581,-0.25857377,0.009576807,10.572795,-0.50701815,0.040317107,-0.2968805,-14.28,-3.0,-49.68
1774512361601,-0.7565677,0.110133275,10.874464,-0.4007276,0.059864793,-0.20647246,-15.059999,-3.6599998,-49.68
1774512361620,-0.842759,0.50278234,10.730812,-0.17959438,0.040317107,-0.18692477,-15.179999,-3.54,-49.68
1774512361641,-0.5602432,1.043872,10.0029745,0.09285152,0.037873644,-0.18570304,-14.759999,-3.24,-49.32
1774512361660,-0.30166942,1.1540052,9.227253,0.12950343,0.04153884,-0.21135938,-14.46,-3.0,-49.44
1774512361681,0.11492168,1.1013328,8.90643,0.14782938,-0.02321288,-0.20280726,-14.46,-3.24,-49.32
1774512361702,0.33518824,1.0390835,8.724471,0.20525073,-0.047647487,-0.18448131,-14.28,-3.06,-49.32
1774512361722,0.23463176,0.81881696,8.1881695,0.23579398,0.007330383,-0.12583824,-14.58,-3.54,-49.62
1774512361743,0.23942018,0.6943185,7.833828,0.02321288,0.05131268,0.032986723,-14.34,-3.6599998,-49.559998
1774512361763,0.29209262,0.80924016,7.824251,-0.12339478,0.014660766,0.06352998,-14.04,-3.78,-49.2
1774512361784,0.19632454,0.8283938,7.8912888,-0.27855456,-0.06352998,0.08552113,-14.759999,-4.74,-48.96
1774512361804,0.019153614,0.94331545,8.336611,-0.4092797,-0.05497787,0.10995574,-15.48,-5.8199997,-48.719997
1774512361824,-0.0047884034,1.0821792,9.107543,-0.44226643,-0.014660766,0.13194689,-15.9,-5.8799996,-48.78
1774512361844,0.11971009,1.1731589,9.725247,-0.42271876,0.0012217305,0.14660765,-15.839999,-5.4,-49.379997
1774512361863,0.19632454,1.2497733,10.175357,-0.34697145,-0.0036651916,0.14049901,-15.42,-4.3199997,-49.68
1774512361883,0.16280572,1.484405,10.5440645,-0.19425514,-0.010995574,0.13927728,-14.4,-2.3999999,-49.559998
1774512361905,0.19153613,1.6136919,10.840945,-0.02076942,-0.015882496,0.1563815,-14.46,-2.04,-49.8
1774512361925,0.38307226,1.685518,10.730812,0.04642576,-0.047647487,0.16126843,-14.639999,-1.56,-48.96
1774512361945,0.5267244,1.5801731,10.644621,0.0720821,-0.058643065,0.19058995,-14.4,-1.26,-48.96
1774512361965,0.56982,1.2976574,10.912771,0.12461651,-0.062308256,0.23945917,-14.82,-1.8,-48.84
1774512361986,0.4261679,1.1540052,10.864887,0.09040806,-0.07819075,0.23701571,-15.299999,-2.1599998,-48.66
1774512362007,0.24420857,0.5363012,11.329363,-0.02321288,-0.09040806,0.24923302,-15.42,-2.28,-48.96
1774512362027,0.56982,0.34955344,11.880029,-0.073303826,-0.111177474,0.24923302,-16.26,-2.76,-48.84
1774512362048,0.82360536,0.08140286,11.980585,0.018325957,-0.14172074,0.18203785,-15.9,-2.1,-48.96
1774512362067,0.7374141,-0.1388637,11.626244,0.0720821,-0.112399206,0.10751228,-15.9,-1.38,-49.2
1774512362088,0.3878607,-1.5179238,11.473015,0.042760566,-0.12217305,0.059864793,-15.78,-1.14,-49.44
1774512362109,0.15322891,-2.3942018,11.57836,-0.018325957,-0.04642576,0.13072516,-16.619999,-1.3199999,-49.8
1774512362130,0.009576807,-2.743755,11.410766,0.13316862,-0.047647487,0.17104226,-17.699999,-1.62,-50.219997
1774512362150,-0.033518825,-2.9257145,10.189722,0.43249258,-0.059864793,0.1685988,-17.94,-2.1599998,-49.8
1774512362171,-0.4357447,-2.7150247,8.858546,0.5815437,-0.13072516,0.15882497,-18.42,-2.8799999,-49.92
1774512362192,-0.34955344,-2.719813,7.7811556,0.48991394,-0.20280726,0.15271631,-16.92,-1.8,-49.32
1774512362213,-0.30645782,-2.480393,7.943961,0.18692477,-0.19181168,0.15393804,-16.619999,-2.46,-49.02
1774512362234,-0.45489833,-2.3942018,8.494628,-0.073303826,-0.03176499,0.15760323,-16.5,-2.58,-48.84
1774512362255,-0.81881696,-2.3654714,8.676587,-0.16982053,0.13561209,0.1881465,-16.26,-2.52,-48.539997
1774512362275,-0.7422025,-2.2601264,8.6334915,-0.14782938,0.19303341,0.23701571,-17.039999,-3.3,-48.42
1774512362296,-0.60812724,-2.0015526,8.643068,-0.13316862,0.22113322,0.23945917,-17.16,-2.9399998,-48.66
1774512362317,-0.59855044,-2.0159178,8.537724,-0.17959438,0.19058995,0.2125811,-17.4,-2.34,-48.66
1774512362336,-0.50757074,-1.9153614,8.66701,-0.25045475,0.14294247,0.19303341,-17.039999,-1.62,-48.78
1774512362358,-0.45489833,-1.8531121,8.63828,-0.21868975,0.062308256,0.18203785,-17.1,-1.62,-48.78
1774512362378,-0.16280572,-1.6280571,8.686164,-0.17592919,-0.02687807,0.2003638,-17.4,-2.1,-48.719997
1774512362399,-0.272939,-1.5610195,8.695741,-0.23457226,0.09285152,0.21746802,-16.92,-1.56,-48.48
1774512362419,-0.50278234,-1.70946,8.619126,-0.33475417,0.21868975,0.26267207,-16.859999,-1.14,-49.02
1774512362439,-0.47884035,-1.7669208,8.791509,-0.3811799,0.15515977,0.29932398,-16.619999,-0.84,-48.84
1774512362459,-0.35913026,-1.8818425,9.208099,-0.41172317,0.02443461,0.30298916,-16.32,-0.17999999,-48.6
1774512362480,-0.24420857,-1.9632454,9.864111,-0.47647488,-0.06719518,0.2919936,-16.44,0.29999998,-49.32
1774512362500,0.24420857,-1.8483237,10.328587,-0.46303585,-0.10873401,0.24923302,-16.56,0.71999997,-49.32
1774512362532,0.5267244,-1.7956513,10.989386,-0.42638394,0.043982297,0.09162979,-17.039999,0.9,-49.739998
1774512362552,0.40701428,-1.7956513,11.051635,-0.3005457,0.18448131,-0.04886922,-17.279999,1.38,-50.16
1774512362572,0.30645782,-1.6567876,10.79785,-0.06963864,0.19058995,-0.15149458,-17.64,1.56,-49.68
1774512362593,0.18674773,-1.4173675,10.371682,0.17592919,0.119729586,-0.21624629,-17.46,1.92,-49.62
1774512362613,-0.1436521,-1.1875241,9.811439,0.3811799,0.034208454,-0.22724187,-17.1,2.7,-49.379997
1774512362633,-0.062249243,-0.60333884,9.045294,0.5180137,-0.030543262,-0.17104226,-16.619999,3.0,-49.559998
1774512362653,0.6799533,-0.91458505,9.059659,0.40561453,-0.043982297,-0.1881465,-16.02,2.8799999,-49.98
1774512362674,1.1492168,-1.0055647,9.380483,0.23335053,0.028099801,-0.30665436,-16.02,2.76,-49.92
1774512362694,1.2737153,-0.5506664,9.083601,0.3567453,0.0012217305,-0.4288274,-16.02,1.92,-50.1
1774512362715,1.0582372,-0.17238252,8.087613,0.5497787,-0.09773844,-0.4813618,-16.5,1.02,-50.039997
1774512362734,1.2210429,0.05746084,7.690176,0.36163223,-0.1282817,-0.3933972,-16.199999,0.35999998,-50.16
1774512362754,1.316811,0.15322891,7.9726915,-0.26389378,-0.04886922,-0.2761111,-16.74,-0.65999997,-50.219997
1774512362774,0.6799533,-0.45968673,9.629479,-0.8381071,-0.021991149,-0.23823744,-16.08,-0.29999998,-50.16
1774512362794,-0.33039984,-0.94810385,11.348516,-1.0140363,0.03176499,-0.204029,-15.24,0.65999997,-50.16
1774512362815,-0.866701,-0.8379706,12.200851,-0.7171558,0.04520403,-0.17470746,-14.94,1.86,-49.98
1774512362836,-0.47405192,-0.11971009,11.784261,-0.19181168,-0.007330383,-0.19792034,-14.94,2.6399999,-49.559998
1774512362856,-0.10055647,0.33518824,10.491392,0.15393804,-0.004886922,-0.3115413,-15.54,2.7,-49.559998
1774512362875,0.076614454,0.61770403,9.557653,0.21135938,0.02565634,-0.3885103,-16.44,2.1599998,-49.559998
1774512362896,0.25378537,0.62249243,9.232041,0.22724187,-0.013439035,-0.3848451,-16.859999,1.26,-49.68
1774512362915,0.22505496,0.30166942,9.102755,0.25534168,0.015882496,-0.30298916,-16.38,1.74,-50.34
1774512362936,0.24420857,0.05746084,8.7771435,0.27000242,0.05009095,-0.20769419,-15.96,1.14,-50.1
1774512362956,0.36391866,-0.062249243,8.623915,0.2406809,-0.013439035,-0.1160644,-15.599999,0.78,-49.98
1774512362977,0.4213795,-0.023942016,8.647857,0.15882497,-0.059864793,-0.0842994,-15.66,0.48,-50.039997
1774512362999,0.1388637,-0.110133275,8.690952,0.095294975,-0.0842994,-0.06719518,-15.96,-0.48,-49.2
1774512363019,0.023942016,0.01436521,8.791509,0.05375614,-0.08674286,-0.02076942,-16.02,-0.35999998,-49.14
1774512363039,0.08140286,0.40222588,8.935161,0.034208454,-0.0720821,0.04642576,-16.14,-0.53999996,-48.78
1774512363060,0.24899697,0.7134721,9.040505,0.02321288,-0.062308256,0.10995574,-16.26,-0.35999998,-48.66
1774512363082,0.29688102,1.0007763,9.409213,-0.014660766,-0.043982297,0.15760323,-16.08,0.12,-48.36
1774512363103,0.2633622,1.1252748,9.816227,-0.02443461,-0.036651913,0.19303341,-16.38,-0.06,-48.539997
1774512363125,0.2825158,1.1013328,10.280702,0.04642576,-0.04886922,0.1685988,-16.8,-0.17999999,-48.48
1774512363146,0.37828386,1.0103531,10.793061,0.1563815,-0.019547688,0.1563815,-16.92,-0.42,-48.059998
1774512363166,0.15322891,1.0486604,10.726024,0.25778514,0.040317107,0.21013765,-16.98,-0.65999997,-48.3
1774512363187,0.33997664,1.043872,10.515334,0.26511553,0.034208454,0.24678956,-17.279999,-1.0799999,-48.36
1774512363209,0.6847417,0.8283938,11.008539,0.11728613,-0.010995574,0.27366763,-16.56,-0.65999997,-48.539997
1774512363229,0.91937345,0.2825158,11.707646,-0.009773844,-0.06352998,0.23701571,-16.44,-1.02,-49.2
1774512363251,1.1875241,-0.095768064,12.354081,-0.035430185,-0.10629055,0.172264,-16.5,-1.02,-49.559998
1774512363271,1.067814,-1.1779473,12.363658,0.007330383,-0.15515977,0.03176499,-16.38,-0.9,-49.739998
1774512363292,0.6943185,-2.5474305,12.368446,-0.007330383,-0.1563815,-0.036651913,-16.859999,-1.02,-49.62
1774512363312,0.8762778,-2.9017725,12.124237,0.1441642,-0.15393804,-0.02076942,-16.44,-0.71999997,-48.84
1774512363332,0.62249243,-3.107674,11.03727,0.45814893,-0.065973446,-0.05375614,-16.38,-0.9,-48.539997
1774512363353,-0.12928689,-2.9257145,9.41879,0.63529986,0.08552113,-0.013439035,-16.32,-0.59999996,-48.3
1774512363374,-0.56982,-2.5905263,8.145074,0.63407815,0.18448131,0.052534413,-16.32,-0.84,-48.3
1774512363395,-0.89064306,-2.384625,7.28795,0.5119051,0.1685988,0.07452556,-16.98,-1.86,-48.66
1774512363415,-1.1971009,-2.4420857,7.0485296,0.25167647,0.111177474,0.09285152,-16.44,-2.82,-48.12
1774512363437,-1.1013328,-2.3989902,7.6375036,-0.065973446,0.06352998,0.12461651,-16.08,-3.06,-48.12
1774512363458,-0.9672575,-2.432509,8.279149,-0.23090707,0.105068825,0.1160644,-15.54,-3.06,-47.82
1774512363480,-0.9528923,-2.5234885,8.336611,-0.22113322,0.10873401,0.09773844,-14.94,-2.7,-47.28
1774512363501,-0.6512229,-2.3463178,8.231265,-0.26389378,-0.065973446,0.081855945,-15.299999,-2.58,-47.399998
1774512363522,-0.4261679,-2.2170308,8.346188,-0.26389378,-0.065973446,0.081855945,-15.48,-2.58,-47.46
1774512363544,-0.5602432,-2.1883004,8.604761,-0.4605924,-0.015882496,0.24556783,-15.36,-2.52,-47.7
1774512363563,-0.641646,-2.0829554,8.834604,-0.53878313,-0.0061086523,0.3408628,-15.9,-2.6399999,-47.94
1774512363584,-0.60333884,-1.9967642,9.212888,-0.54611355,-0.064751714,0.3921755,-15.96,-2.1,-47.879997
1774512363605,-0.6607997,-1.910573,9.639056,-0.44104472,-0.204029,0.39706242,-15.839999,-1.4399999,-47.52
1774512363626,-0.34955344,-1.6759412,9.916783,-0.3726278,-0.172264,0.3848451,-16.08,-0.78,-47.52
1774512363652,-0.0047884034,-1.5945383,10.237606,-0.35308012,-0.10995574,0.31398472,-16.68,-0.53999996,-47.28
1774512363674,-0.095768064,-1.7381904,10.290278,-0.3408628,0.05009095,0.23090707,-16.74,0.12,-47.579998
1774512363694,0.023942016,-1.8100165,10.309433,-0.23457226,0.04642576,0.16615535,-17.34,0.9,-47.16
1774512363715,0.29688102,-1.8435353,10.31901,-0.112399206,-0.042760566,0.09040806,-16.98,1.8,-47.46
1774512363735,0.59376204,-1.8100165,10.218452,-0.015882496,-0.103847094,0.004886922,-17.1,1.86,-47.399998
1774512363757,0.80924016,-1.7286136,10.232818,0.062308256,-0.10873401,-0.07452556,-17.4,2.1,-47.52
1774512363776,0.92416185,-1.7429788,10.141838,0.13439035,-0.07086037,-0.1563815,-17.1,2.22,-47.579998
1774512363797,1.1444284,-1.4748282,10.093954,0.23945917,-0.04153884,-0.23945917,-16.859999,2.34,-48.239998
1774512363832,0.61291564,-0.4261679,8.868123,0.52290064,0.065973446,-0.36896262,-16.859999,2.1,-48.0
1774512363853,0.8331822,-0.8379706,8.614338,0.312763,0.11484267,-0.453262,-16.859999,1.86,-48.3
1774512363873,1.3024458,-1.7669208,9.859323,0.073303826,0.08674286,-0.52656585,-17.16,1.56,-48.0
1774512363893,1.4939818,-1.6472107,10.13705,0.12217305,0.14294247,-0.64996064,-17.76,0.71999997,-47.219997
1774512363914,1.1827357,-1.0630256,8.868123,0.42760566,0.16737708,-0.6731735,-17.16,0.24,-47.1
1774512363935,1.316811,-0.07182605,7.513005,0.3921755,0.13439035,-0.535118,-16.98,-0.59999996,-46.98
1774512363955,1.2497733,0.61291564,7.551312,-0.035430185,0.13561209,-0.4288274,-16.44,-1.14,-47.219997
1774512363975,0.842759,0.5506664,8.394072,-0.50579643,0.103847094,-0.35308012,-17.039999,-2.3999999,-47.28
1774512363995,0.48841715,0.076614454,9.720459,-0.8588765,-0.043982297,-0.3726278,-16.8,-2.22,-47.28
1774512364016,0.20590134,-0.60333884,11.3964,-1.0555751,-0.13439035,-0.4288274,-16.08,-1.14,-47.82
1774512364036,0.019153614,-0.6991069,12.861651,-0.8735373,-0.15027285,-0.4728097,-15.599999,-0.06,-48.059998
1774512364055,-0.20590134,-0.47884035,12.818556,-0.3005457,-0.080634214,-0.5119051,-16.26,-0.06,-47.94
1774512364076,-0.4213795,-0.07182605,11.204864,0.36651915,0.058643065,-0.5021312,-17.699999,-0.35999998,-48.539997
1774512364095,-0.38307226,0.07182605,9.136273,0.67073005,0.087964594,-0.43860126,-19.439999,-1.4399999,-48.66
1774512364115,-0.22984336,0.19632454,7.967903,0.7049385,0.02321288,-0.3213151,-21.539999,-2.82,-48.42
1774512364136,-0.08619126,0.36870706,7.4363904,0.5681047,-0.06719518,-0.20647246,-21.96,-3.36,-48.899998
1774512364156,0.2825158,0.2777274,7.61835,0.2883284,-0.12217305,-0.1001819,-21.72,-3.78,-48.719997
1774512364176,0.5602432,0.11492168,8.054094,0.089186326,-0.118507855,-0.05131268,-21.18,-3.9599998,-48.6
