ts,ax,ay,az,gx,gy,gz,mx,my,mz
1782300052340,0.457029,1.318445,9.558033,-0.128558,-0.045273,0.078052,-16.25625,-4.725,-19.762501
1782300052349,0.440279,1.265803,9.653746,-0.164599,-0.012287,0.094545,-18.168751,-5.86875,-20.700001
1782300052357,0.354138,1.213161,9.60589,-0.184757,-0.001291,0.107984,-18.168751,-5.86875,-20.700001
1782300052359,0.354138,1.213161,9.60589,-0.184757,-0.001291,0.107984,-18.300001,-7.2,-19.800001
1782300052365,0.323031,1.162912,9.663317,-0.195753,-0.034889,0.117147,-18.300001,-7.2,-19.800001
1782300052370,0.323031,1.162912,9.663317,-0.195753,-0.034889,0.117147,-18.300001,-7.2,-19.800001
1782300052374,0.323031,1.162912,9.663317,-0.190255,-0.075817,0.122645,-18.300001,-7.2,-19.800001
1782300052375,0.301496,1.12702,9.854744,-0.190255,-0.075817,0.122645,-18.300001,-7.2,-19.800001
1782300052379,0.301496,1.12702,9.854744,-0.190255,-0.075817,0.122645,-16.44375,-4.44375,-19.1625
1782300052382,0.301496,1.12702,9.854744,-0.168875,-0.092921,0.129364,-16.44375,-4.44375,-19.1625
1782300052383,0.282353,1.095913,10.050954,-0.168875,-0.092921,0.129364,-16.44375,-4.44375,-19.1625
1782300052389,0.282353,1.095913,10.050954,-0.168875,-0.092921,0.129364,-16.44375,-4.44375,-19.1625
1782300052391,0.315853,1.103091,10.003098,-0.139553,-0.081314,0.132419,-16.44375,-4.44375,-19.1625
1782300052399,0.315853,1.103091,10.003098,-0.118173,-0.073373,0.137306,-18.450001,-5.1375,-21.75
1782300052400,0.325424,1.083949,9.893029,-0.118173,-0.073373,0.137306,-18.450001,-5.1375,-21.75
1782300052410,0.282353,1.115055,9.761423,-0.113286,-0.074595,0.139138,-18.450001,-5.1375,-21.75
1782300052411,0.282353,1.115055,9.761423,-0.113286,-0.074595,0.139138,-16.200001,-6.4875,-20.1
1782300052417,0.284746,1.179662,9.735102,-0.118784,-0.083758,0.141582,-16.200001,-6.4875,-20.1
1782300052428,0.287139,1.162912,9.744673,-0.131001,-0.08498,0.143414,-15.450001,-5.475,-20.53125
1782300052434,0.272782,1.155733,9.732709,-0.141997,-0.073984,0.145858,-15.450001,-5.475,-20.53125
1782300052439,0.272782,1.155733,9.732709,-0.141997,-0.073984,0.145858,-17.118752,-5.90625,-19.931252
1782300052442,0.272782,1.155733,9.732709,-0.147494,-0.062378,0.14708,-17.118752,-5.90625,-19.931252
1782300052443,0.272782,1.119841,9.785351,-0.147494,-0.062378,0.14708,-17.118752,-5.90625,-19.931252
1782300052448,0.272782,1.119841,9.785351,-0.147494,-0.062378,0.14708,-17.606251,-6.0375,-19.03125
1782300052451,0.282353,1.098306,9.845171,-0.146883,-0.047106,0.150134,-17.606251,-6.0375,-19.03125
1782300052459,0.282353,1.098306,9.845171,-0.146883,-0.047106,0.150134,-17.94375,-4.85625,-18.862501
1782300052461,0.332602,1.081556,9.926528,-0.138331,-0.02145,0.152577,-17.94375,-4.85625,-18.862501
1782300052470,0.332602,1.081556,9.926528,-0.124281,0.001763,0.153188,-18.056252,-5.00625,-20.081251
1782300052471,0.334995,1.081556,9.988741,-0.124281,0.001763,0.153188,-18.056252,-5.00625,-20.081251
1782300052480,0.303888,1.098306,9.988741,-0.10901,0.019478,0.155021,-16.743752,-3.09375,-20.6625
1782300052487,0.303888,1.098306,9.988741,-0.085797,0.015813,0.158075,-16.743752,-3.09375,-20.6625
1782300052488,0.284746,1.124627,9.969598,-0.085797,0.015813,0.158075,-16.743752,-3.09375,-20.6625
1782300052489,0.284746,1.124627,9.969598,-0.085797,0.015813,0.158075,-17.456251,-5.90625,-19.181252
1782300052494,0.246461,1.172483,9.983956,-0.051589,0.007872,0.159908,-17.456251,-5.90625,-19.181252
1782300052499,0.246461,1.172483,9.983956,-0.051589,0.007872,0.159908,-18.543751,-4.40625,-19.462502
1782300052503,0.212961,1.256232,9.96242,-0.006995,0.009094,0.161129,-18.543751,-4.40625,-19.462502
1782300052509,0.212961,1.256232,9.96242,-0.006995,0.009094,0.161129,-16.81875,-5.00625,-21.13125
1782300052511,0.177069,1.366302,9.780566,0.038819,0.018257,0.164184,-16.81875,-5.00625,-21.13125
1782300052522,0.102891,1.473979,9.553248,0.077304,0.027419,0.167849,-17.90625,-4.10625,-20.981251
1782300052535,0.026321,1.569692,9.369,0.09563,0.040248,0.171514,-17.19375,-3.825,-19.9125
1782300052537,-0.014357,1.667797,9.239788,0.084634,0.057963,0.17579,-17.19375,-3.825,-19.9125
1782300052538,-0.014357,1.667797,9.239788,0.084634,0.057963,0.17579,-17.306252,-5.00625,-20.081251
1782300052546,-0.066999,1.720439,9.225431,0.049204,0.075678,0.178845,-17.306252,-5.00625,-20.081251
1782300052548,-0.066999,1.720439,9.225431,0.049204,0.075678,0.178845,-16.856251,-5.75625,-19.331251
1782300052554,-0.136391,1.689333,9.239788,-0.003941,0.071402,0.181288,-16.856251,-5.75625,-19.331251
1782300052561,-0.136391,1.689333,9.239788,-0.003941,0.071402,0.181288,-18.0375,-5.4375,-20.53125
1782300052563,-0.167498,1.603191,9.340287,-0.06686,0.050021,0.183121,-18.0375,-5.4375,-20.53125
1782300052570,-0.167498,1.603191,9.340287,-0.06686,0.050021,0.183121,-15.937501,-4.14375,-20.981251
1782300052571,-0.167498,1.603191,9.340287,-0.131612,0.024976,0.183121,-15.937501,-4.14375,-20.981251
1782300052572,-0.172283,1.478764,9.529319,-0.131612,0.024976,0.183121,-15.937501,-4.14375,-20.981251
1782300052579,-0.172283,1.478764,9.529319,-0.131612,0.024976,0.183121,-18.0375,-5.00625,-20.53125
1782300052581,-0.189033,1.366302,9.718352,-0.188422,0.011537,0.183121,-18.0375,-5.00625,-20.53125
1782300052590,-0.189033,1.366302,9.718352,-0.228739,0.009704,0.18251,-18.0375,-5.00625,-20.53125
1782300052591,-0.141177,1.232304,9.890635,-0.228739,0.009704,0.18251,-17.475,-4.125,-20.212502
1782300052597,-0.114855,1.105484,10.07249,-0.228739,0.009704,0.18251,-17.475,-4.125,-20.212502
1782300052598,-0.114855,1.105484,10.07249,-0.253174,0.017646,0.178845,-17.475,-4.125,-20.212502
1782300052599,-0.114855,1.105484,10.07249,-0.253174,0.017646,0.178845,-16.25625,-5.025,-19.78125
1782300052606,-0.081356,0.993021,10.204095,-0.261115,0.029863,0.172736,-16.25625,-5.025,-19.78125
1782300052609,-0.081356,0.993021,10.204095,-0.261115,0.029863,0.172736,-15.20625,-3.84375,-20.681252
1782300052614,-0.081356,0.993021,10.204095,-0.255007,0.04208,0.164184,-15.20625,-3.84375,-20.681252
1782300052615,-0.052642,0.916451,10.347664,-0.255007,0.04208,0.164184,-15.20625,-3.84375,-20.681252
1782300052620,-0.052642,0.916451,10.347664,-0.255007,0.04208,0.164184,-17.606251,-4.25625,-20.831251
1782300052623,-0.052642,0.916451,10.347664,-0.240957,0.053687,0.155021,-17.606251,-4.25625,-20.831251
1782300052624,-0.019143,0.837488,10.42902,-0.240957,0.053687,0.155021,-17.606251,-4.25625,-20.831251
1782300052639,0.014357,0.823131,10.503198,-0.225685,0.061628,0.144636,-17.643751,-5.00625,-19.012501
1782300052640,0.064606,0.839881,10.527126,-0.206748,0.062239,0.131808,-16.81875,-5.00625,-21.13125
1782300052650,0.102891,0.882952,10.531912,-0.177427,0.05613,0.118369,-16.40625,-3.84375,-20.681252
1782300052657,0.150748,0.9667,10.457735,-0.135277,0.051243,0.103708,-16.40625,-3.84375,-20.681252
1782300052658,0.150748,0.9667,10.457735,-0.135277,0.051243,0.103708,-18.075001,-4.25625,-20.53125
1782300052666,0.167498,1.086342,10.271094,-0.083354,0.059795,0.086604,-18.075001,-4.25625,-20.53125
1782300052670,0.167498,1.086342,10.271094,-0.083354,0.059795,0.086604,-16.575001,-3.99375,-20.0625
1782300052674,0.184247,1.258625,9.991134,-0.028376,0.072623,0.070721,-16.575001,-3.99375,-20.0625
1782300052680,0.184247,1.258625,9.991134,-0.028376,0.072623,0.070721,-16.743752,-4.425,-19.462502
1782300052683,0.196211,1.40698,9.615461,0.018661,0.086673,0.058504,-16.743752,-4.425,-19.462502
1782300052689,0.196211,1.40698,9.615461,0.018661,0.086673,0.058504,-17.325001,-3.975,-20.53125
1782300052691,0.196211,1.40698,9.615461,0.04615,0.101334,0.050563,-17.325001,-3.975,-20.53125
1782300052692,0.212961,1.536192,9.268502,0.04615,0.101334,0.050563,-17.325001,-3.975,-20.53125
1782300052699,0.212961,1.536192,9.268502,0.04615,0.101334,0.050563,-17.925001,-4.40625,-20.231251
1782300052700,0.253639,1.622334,8.993327,0.047372,0.116606,0.045065,-17.925001,-4.40625,-20.231251
1782300052710,0.253639,1.622334,8.993327,0.030267,0.130045,0.043233,-17.925001,-4.40625,-20.231251
1782300052711,0.241675,1.718047,8.8689,0.030267,0.130045,0.043233,-17.700001,-2.5125,-19.293751
1782300052718,0.241675,1.718047,8.8689,0.000946,0.13371,0.042011,-17.700001,-2.5125,-19.293751
1782300052719,0.260818,1.785046,8.866507,0.000946,0.13371,0.042011,-17.700001,-2.5125,-19.293751
1782300052720,0.260818,1.785046,8.866507,0.000946,0.13371,0.042011,-17.175001,-4.875,-19.462502
1782300052726,0.275175,1.794617,8.950256,-0.030819,0.135543,0.039567,-17.175001,-4.875,-19.462502
1782300052734,0.275175,1.794617,8.950256,-0.030819,0.135543,0.039567,-16.462502,-2.6625,-20.212502
1782300052736,0.275175,1.804188,9.08904,-0.05953,0.13371,0.042011,-16.462502,-2.6625,-20.212502
1782300052739,0.275175,1.804188,9.08904,-0.05953,0.13371,0.042011,-18.431252,-5.56875,-21.75
1782300052744,0.253639,1.777867,9.220645,-0.077245,0.122714,0.042622,-18.431252,-5.56875,-21.75
1782300052749,0.253639,1.777867,9.220645,-0.077245,0.122714,0.042622,-18.0,-4.9875,-21.6
1782300052754,0.227318,1.768296,9.347465,-0.086408,0.104999,0.045065,-18.0,-4.9875,-21.6
1782300052759,0.227318,1.768296,9.347465,-0.086408,0.104999,0.045065,-17.4375,-3.825,-21.731251
1782300052762,0.20339,1.758725,9.438392,-0.093738,0.087284,0.052396,-17.4375,-3.825,-21.731251
1782300052770,0.179462,1.701297,9.53889,-0.098014,0.073234,0.059115,-16.518751,-5.00625,-21.13125
1782300052778,0.143569,1.65344,9.625032,-0.09496,0.052465,0.065224,-16.518751,-5.00625,-21.13125
1782300052779,0.143569,1.65344,9.625032,-0.09496,0.052465,0.065224,-15.843751,-3.5625,-20.0625
1782300052787,0.086142,1.600798,9.689639,-0.089462,0.035361,0.068889,-15.843751,-3.5625,-20.0625
1782300052789,0.086142,1.600798,9.689639,-0.089462,0.035361,0.068889,-16.6875,-3.825,-21.431252
1782300052796,0.055035,1.550549,9.692031,-0.080299,0.015202,0.072554,-16.6875,-3.825,-21.431252
1782300052801,0.055035,1.550549,9.692031,-0.080299,0.015202,0.072554,-16.706251,-3.39375,-21.431252
1782300052805,0.007178,1.512264,9.684853,-0.068693,-0.005567,0.071943,-16.706251,-3.39375,-21.431252
1782300052810,0.007178,1.512264,9.684853,-0.068693,-0.005567,0.071943,-16.237501,-4.725,-20.831251
1782300052812,0.007178,1.512264,9.684853,-0.055254,-0.018395,0.070111,-16.237501,-4.725,-20.831251
1782300052813,0.01675,1.514657,9.660924,-0.055254,-0.018395,0.070111,-16.237501,-4.725,-20.831251
1782300052820,0.01675,1.514657,9.660924,-0.055254,-0.018395,0.070111,-16.44375,-3.84375,-19.462502
1782300052821,0.019143,1.519442,9.634603,-0.03876,-0.017784,0.065835,-16.44375,-3.84375,-19.462502
1782300052830,-0.002393,1.536192,9.581961,-0.021045,-0.009843,0.057282,-16.275002,-4.29375,-20.0625
1782300052846,-0.026321,1.524228,9.514963,-0.010661,-0.003124,0.049341,-16.275002,-4.29375,-20.0625
1782300052847,-0.040678,1.540978,9.459927,-0.006995,-0.002513,0.040789,-16.275002,-4.29375,-20.0625
1782300052849,-0.040678,1.540978,9.459927,-0.006995,-0.002513,0.040789,-16.556252,-4.725,-20.081251
1782300052854,-0.040678,1.540978,9.459927,-0.002719,-0.003124,0.031015,-16.556252,-4.725,-20.081251
1782300052855,-0.0335,1.538585,9.481463,-0.002719,-0.003124,0.031015,-16.556252,-4.725,-20.081251
1782300052860,-0.0335,1.538585,9.481463,-0.002719,-0.003124,0.031015,-16.837502,-3.975,-21.581251
1782300052863,-0.004786,1.507478,9.543676,0.001557,-0.003124,0.020631,-16.837502,-3.975,-21.581251
1782300052869,-0.004786,1.507478,9.543676,0.001557,-0.003124,0.020631,-16.837502,-3.975,-21.581251
1782300052872,0.045464,1.469193,9.562819,0.008887,0.001152,0.009635,-16.837502,-3.975,-21.581251
1782300052879,0.045464,1.469193,9.562819,0.008887,0.001152,0.009635,-16.40625,-4.125,-20.681252
1782300052880,0.059821,1.493121,9.591532,0.015607,-0.001902,-0.005026,-16.40625,-4.125,-20.681252
1782300052890,0.059821,1.493121,9.591532,0.02477,-0.008622,-0.017243,-16.40625,-4.125,-20.681252
1782300052891,0.066999,1.51705,9.625032,0.02477,-0.008622,-0.017243,-17.512501,-4.2375,-23.400002
1782300052897,0.066999,1.51705,9.625032,0.041874,-0.011065,-0.026406,-17.512501,-4.2375,-23.400002
1782300052898,0.119641,1.536192,9.625032,0.041874,-0.011065,-0.026406,-17.512501,-4.2375,-23.400002
1782300052899,0.119641,1.536192,9.625032,0.041874,-0.011065,-0.026406,-16.237501,-4.275,-21.13125
1782300052907,0.191426,1.607977,9.553248,0.061421,-0.001291,-0.033126,-16.237501,-4.275,-21.13125
1782300052909,0.191426,1.607977,9.553248,0.061421,-0.001291,-0.033126,-16.837502,-5.45625,-19.78125
1782300052915,0.241675,1.660619,9.455142,0.08158,0.010926,-0.035569,-16.837502,-5.45625,-19.78125
1782300052920,0.241675,1.660619,9.455142,0.08158,0.010926,-0.035569,-15.675,-3.84375,-20.212502
1782300052924,0.27996,1.710868,9.364214,0.096241,0.021922,-0.034958,-15.675,-3.84375,-20.212502
1782300052929,0.27996,1.710868,9.364214,0.096241,0.021922,-0.034958,-17.137501,-4.85625,-20.681252
1782300052931,0.27996,1.710868,9.364214,0.10296,0.032917,-0.033126,-17.137501,-4.85625,-20.681252
1782300052932,0.306281,1.753939,9.380964,0.10296,0.032917,-0.033126,-17.137501,-4.85625,-20.681252
1782300052941,0.29671,1.804188,9.392929,0.107236,0.043302,-0.030682,-16.481251,-5.45625,-21.6
1782300052950,0.248854,1.885544,9.428821,0.108458,0.057352,-0.027017,-15.525001,-3.99375,-20.0625
1782300052957,0.212961,1.90708,9.390536,0.109069,0.068347,-0.02213,-15.525001,-3.99375,-20.0625
1782300052958,0.212961,1.90708,9.390536,0.109069,0.068347,-0.02213,-16.706251,-3.825,-20.981251
1782300052966,0.189033,1.902294,9.395321,0.103571,0.067737,-0.017854,-16.706251,-3.825,-20.981251
1782300052968,0.189033,1.902294,9.395321,0.103571,0.067737,-0.017854,-18.4125,-3.225,-20.0625
1782300052975,0.167498,1.914258,9.433607,0.092576,0.059795,-0.013578,-18.4125,-3.225,-20.0625
1782300052979,0.167498,1.914258,9.433607,0.092576,0.059795,-0.013578,-15.76875,-3.54375,-21.88125
1782300052983,0.16989,1.935794,9.550854,0.080969,0.053687,-0.011745,-15.76875,-3.54375,-21.88125
1782300052988,0.16989,1.935794,9.550854,0.080969,0.053687,-0.011745,-17.625,-3.975,-20.53125
1782300052992,0.107677,1.916651,9.696817,0.076693,0.048189,-0.011134,-17.625,-3.975,-20.53125
1782300052998,0.107677,1.916651,9.696817,0.076693,0.048189,-0.011134,-17.493752,-4.125,-19.9125
1782300053000,0.045464,1.871187,9.883457,0.085856,0.052465,-0.014189,-17.493752,-4.125,-19.9125
1782300053010,-0.050249,1.825724,10.041383,0.108458,0.052465,-0.024573,-16.837502,-4.725,-20.53125
1782300053017,-0.102891,1.818545,10.16581,0.108458,0.052465,-0.024573,-16.837502,-4.725,-20.53125
1782300053018,-0.102891,1.818545,10.16581,0.13839,0.051854,-0.039234,-15.075001,-3.5625,-20.512501
1782300053026,-0.131605,1.823331,10.251952,0.167712,0.053687,-0.053895,-15.075001,-3.5625,-20.512501
1782300053028,-0.131605,1.823331,10.251952,0.167712,0.053687,-0.053895,-15.618751,-4.14375,-21.431252
1782300053035,-0.09332,1.808974,10.321344,0.188481,0.054908,-0.06489,-15.618751,-4.14375,-21.431252
1782300053039,-0.09332,1.808974,10.321344,0.188481,0.054908,-0.06489,-17.175001,-3.09375,-21.431252
1782300053047,0.004786,1.806581,10.345272,0.200699,0.043913,-0.077719,-17.175001,-3.09375,-21.431252
1782300053048,0.004786,1.806581,10.345272,0.200699,0.043913,-0.077719,-17.25,-5.7375,-21.150002
1782300053052,0.040678,1.785046,10.436199,0.210472,0.010315,-0.09299,-17.25,-5.7375,-21.150002
1782300053059,0.040678,1.785046,10.436199,0.210472,0.010315,-0.09299,-16.668751,-5.15625,-20.681252
1782300053060,0.100499,1.76351,10.517555,0.21597,-0.022061,-0.104597,-16.668751,-5.15625,-20.681252
1782300053069,0.153141,1.718047,10.565411,0.225133,-0.056269,-0.119868,-17.212502,-6.0375,-21.6
1782300053077,0.11007,1.727618,10.618054,0.246513,-0.092921,-0.135751,-17.212502,-6.0375,-21.6
1782300053078,0.11007,1.727618,10.618054,0.246513,-0.092921,-0.135751,-17.550001,-5.4375,-21.6
1782300053086,0.136391,1.753939,10.553447,0.277668,-0.106971,-0.146136,-17.550001,-5.4375,-21.6
1782300053089,0.136391,1.753939,10.553447,0.277668,-0.106971,-0.146136,-17.137501,-4.85625,-20.681252
1782300053095,0.172283,1.744368,10.405093,0.309433,-0.116745,-0.157131,-17.137501,-4.85625,-20.681252
1782300053099,0.172283,1.744368,10.405093,0.309433,-0.116745,-0.157131,-15.562501,-5.60625,-21.75
1782300053103,0.208176,1.722832,10.249559,0.32898,-0.128962,-0.166905,-15.562501,-5.60625,-21.75
1782300053109,0.208176,1.722832,10.249559,0.32898,-0.128962,-0.166905,-17.887501,-4.85625,-20.681252
1782300053112,0.291924,1.627119,10.228023,0.330202,-0.147899,-0.180344,-17.887501,-4.85625,-20.681252
1782300053118,0.291924,1.627119,10.228023,0.330202,-0.147899,-0.180344,-18.0,-6.01875,-20.85
1782300053120,0.378066,1.557728,10.524733,0.312487,-0.165614,-0.207222,-18.0,-6.01875,-20.85
1782300053129,0.256032,1.521835,10.866908,0.288052,-0.162559,-0.22677,-16.81875,-4.70625,-21.13125
1782300053139,0.284746,1.579263,11.060726,0.26545,-0.152786,-0.256702,-16.78125,-4.70625,-22.650002
1782300053147,0.258425,1.667797,10.931513,0.236129,-0.118577,-0.280526,-16.78125,-4.70625,-22.650002
1782300053149,0.258425,1.667797,10.931513,0.236129,-0.118577,-0.280526,-17.475,-3.825,-20.681252
1782300053155,0.078963,1.672583,10.766408,0.198866,-0.075206,-0.287245,-17.475,-3.825,-20.681252
1782300053159,0.078963,1.672583,10.766408,0.198866,-0.075206,-0.287245,-17.268751,-5.45625,-20.53125
1782300053163,-0.124427,1.598405,10.440984,0.144499,0.01398,-0.275028,-17.268751,-5.45625,-20.53125
1782300053169,-0.124427,1.598405,10.440984,0.144499,0.01398,-0.275028,-17.137501,-4.125,-21.431252
1782300053172,-0.198604,1.512264,10.316558,0.090743,0.096447,-0.256091,-17.137501,-4.125,-21.431252
1782300053179,-0.198604,1.512264,10.316558,0.090743,0.096447,-0.256091,-18.375,-6.6,-22.518751
1782300053180,-0.289532,1.351945,10.476877,0.048593,0.167308,-0.244485,-18.375,-6.6,-22.518751
1782300053190,-0.253639,1.244268,10.82623,0.021715,0.230837,-0.22677,-18.487501,-5.5875,-20.231251
1782300053199,-0.157926,1.177269,11.113368,0.005222,0.290702,-0.210887,-17.85,-6.31875,-20.700001
1782300053206,-0.066999,1.112663,11.31915,-0.006385,0.315137,-0.199892,-17.85,-6.31875,-20.700001
1782300053208,-0.066999,1.112663,11.31915,-0.006385,0.315137,-0.199892,-18.28125,-6.01875,-21.6
1782300053215,0.0335,1.033699,11.345472,-0.023489,0.312693,-0.188896,-18.28125,-6.01875,-21.6
1782300053219,0.0335,1.033699,11.345472,-0.023489,0.312693,-0.188896,-17.456251,-5.90625,-18.88125
1782300053223,0.088534,0.961915,11.273687,-0.044258,0.277263,-0.18462,-17.456251,-5.90625,-18.88125
1782300053229,0.088534,0.961915,11.273687,-0.044258,0.277263,-0.18462,-17.8125,-6.61875,-21.450001
1782300053232,0.105284,0.792024,11.154046,-0.066249,0.22534,-0.185842,-17.8125,-6.61875,-21.450001
1782300053239,0.105284,0.792024,11.154046,-0.066249,0.22534,-0.185842,-16.462502,-6.7875,-20.85
1782300053240,0.145962,0.62692,11.005691,-0.092517,0.17586,-0.18462,-16.462502,-6.7875,-20.85
1782300053251,0.179462,0.492921,10.874086,-0.123671,0.121493,-0.185842,-17.85,-5.5875,-21.450001
1782300053259,0.150748,0.399601,10.821443,-0.145051,0.056741,-0.192561,-16.762501,-5.7375,-21.900002
1782300053266,0.150748,0.327817,10.787944,-0.147494,0.008483,-0.200502,-16.762501,-5.7375,-21.900002
1782300053269,0.150748,0.327817,10.787944,-0.147494,0.008483,-0.200502,-15.76875,-5.475,-20.53125
1782300053275,0.244068,0.224925,10.749659,-0.127947,-0.013508,-0.212109,-15.76875,-5.475,-20.53125
1782300053280,0.244068,0.224925,10.749659,-0.127947,-0.013508,-0.212109,-17.268751,-5.4375,-20.831251
1782300053283,0.351745,0.22014,10.519948,-0.098014,-0.043441,-0.227381,-17.268751,-5.4375,-20.831251
1782300053289,0.351745,0.22014,10.519948,-0.098014,-0.043441,-0.227381,-18.393751,-6.9,-21.768751
1782300053292,0.318245,0.308674,10.230417,-0.057697,-0.083758,-0.24082,-18.393751,-6.9,-21.768751
1782300053298,0.318245,0.308674,10.230417,-0.057697,-0.083758,-0.24082,-17.1,-6.6375,-20.25
1782300053301,0.349352,0.409173,9.967206,-0.006995,-0.110025,-0.246928,-17.1,-6.6375,-20.25
1782300053309,0.349352,0.409173,9.967206,0.050426,-0.111247,-0.253037,-17.56875,-5.7375,-20.53125
1782300053310,0.473779,0.550349,9.689639,0.050426,-0.111247,-0.253037,-17.56875,-5.7375,-20.53125
1782300053323,0.574277,0.727418,9.383358,0.106625,-0.096586,-0.265254,-16.125,-6.4875,-22.368752
1782300053327,0.665205,0.981057,8.983756,0.142666,-0.073373,-0.271974,-16.125,-6.4875,-22.368752
1782300053328,0.665205,0.981057,8.983756,0.142666,-0.073373,-0.271974,-16.125,-6.4875,-22.368752
1782300053335,0.756132,1.15334,8.574583,0.135947,-0.047106,-0.272585,-16.125,-6.4875,-22.368752
1782300053339,0.756132,1.15334,8.574583,0.135947,-0.047106,-0.272585,-17.306252,-7.65,-21.768751
1782300053343,0.808774,1.258625,8.328123,0.082191,-0.013508,-0.262811,-17.306252,-7.65,-21.768751
1782300053349,0.808774,1.258625,8.328123,0.082191,-0.013508,-0.262811,-16.987501,-6.6,-23.2875
1782300053354,0.811167,1.320838,8.297016,-0.006385,0.014591,-0.24815,-16.987501,-6.6,-23.2875
1782300053359,0.811167,1.320838,8.297016,-0.006385,0.014591,-0.24815,-16.35,-5.60625,-21.0
1782300053361,0.789631,1.318445,8.462121,-0.107177,0.04208,-0.233489,-16.35,-5.60625,-21.0
1782300053370,0.789631,1.318445,8.462121,-0.197585,0.089117,-0.216996,-16.35,-5.60625,-21.0
1782300053371,0.758525,1.201197,8.610475,-0.197585,0.089117,-0.216996,-18.13125,-5.86875,-21.450001
1782300053381,0.710668,1.074377,8.804294,-0.2715,0.117827,-0.200502,-18.731251,-6.01875,-21.6
1782300053386,0.710668,1.074377,8.804294,-0.309374,0.146538,-0.18462,-18.731251,-6.01875,-21.6
1782300053387,0.653241,0.933201,9.036397,-0.309374,0.146538,-0.18462,-18.731251,-6.01875,-21.6
1782300053388,0.653241,0.933201,9.036397,-0.309374,0.146538,-0.18462,-18.431252,-5.56875,-22.050001
1782300053395,0.562313,0.768096,9.273287,-0.317926,0.15509,-0.169959,-18.431252,-5.56875,-22.050001
1782300053399,0.562313,0.768096,9.273287,-0.317926,0.15509,-0.169959,-15.712501,-6.4875,-20.85
1782300053403,0.454636,0.619741,9.392929,-0.302654,0.167918,-0.154077,-15.712501,-6.4875,-20.85
1782300053409,0.454636,0.619741,9.392929,-0.302654,0.167918,-0.154077,-16.63125,-5.8875,-21.450001
1782300053412,0.346959,0.526421,9.414464,-0.275165,0.165475,-0.138805,-16.63125,-5.8875,-21.450001
1782300053418,0.346959,0.526421,9.414464,-0.275165,0.165475,-0.138805,-18.31875,-5.4375,-20.831251
1782300053420,0.244068,0.452243,9.481463,-0.237902,0.130656,-0.124755,-18.31875,-5.4375,-20.831251
1782300053429,0.184247,0.385244,9.550854,-0.195142,0.090949,-0.114371,-18.75,-6.75,-20.550001
1782300053439,0.088534,0.411565,9.53889,-0.155436,0.058574,-0.099099,-17.94375,-6.45,-22.368752
1782300053446,-0.002393,0.521635,9.424035,-0.117562,0.03475,-0.081995,-17.94375,-6.45,-22.368752
1782300053448,-0.002393,0.521635,9.424035,-0.117562,0.03475,-0.081995,-17.53125,-4.9875,-22.35
1782300053455,-0.112463,0.602991,9.230217,-0.079077,0.0207,-0.066723,-17.53125,-4.9875,-22.35
1782300053459,-0.112463,0.602991,9.230217,-0.079077,0.0207,-0.066723,-17.19375,-6.46875,-21.918751
1782300053464,-0.133998,0.715454,9.007684,-0.046091,0.012148,-0.045954,-17.19375,-6.46875,-21.918751
1782300053469,-0.133998,0.715454,9.007684,-0.046091,0.012148,-0.045954,-17.981251,-4.6875,-22.950001
1782300053472,-0.160319,0.827917,8.696617,-0.020434,0.010315,-0.025184,-17.981251,-4.6875,-22.950001
1782300053478,-0.160319,0.827917,8.696617,-0.020434,0.010315,-0.025184,-16.78125,-4.25625,-22.950001
1782300053481,-0.165105,0.961915,8.471692,0.000335,0.01398,-0.006858,-16.78125,-4.25625,-22.950001
1782300053489,-0.150748,1.071985,8.330515,0.020493,0.018867,0.005359,-16.762501,-5.7375,-21.900002
1782300053499,-0.145962,1.165305,8.220445,0.048593,0.043302,0.009635,-17.512501,-4.9875,-22.650002
1782300053506,-0.143569,1.20359,8.103197,0.073639,0.070791,0.004748,-17.512501,-4.9875,-22.650002
1782300053508,-0.143569,1.20359,8.103197,0.073639,0.070791,0.004748,-16.78125,-6.0375,-21.150002
1782300053515,-0.184247,1.256232,8.024234,0.087078,0.087895,-0.008691,-16.78125,-6.0375,-21.150002
1782300053519,-0.184247,1.256232,8.024234,0.087078,0.087895,-0.008691,-15.843751,-6.3375,-22.06875
1782300053523,-0.200997,1.318445,7.947663,0.079136,0.082397,-0.023352,-15.843751,-6.3375,-22.06875
1782300053529,-0.200997,1.318445,7.947663,0.079136,0.082397,-0.023352,-18.375,-6.6,-22.518751
1782300053532,-0.157926,1.363909,7.985949,0.051648,0.062239,-0.03618,-18.375,-6.6,-22.518751
1782300053538,-0.157926,1.363909,7.985949,0.051648,0.062239,-0.03618,-16.762501,-6.0375,-21.6
1782300053541,-0.055035,1.411765,8.100804,0.022326,0.045135,-0.045954,-16.762501,-6.0375,-21.6
1782300053549,0.07657,1.464407,8.218052,0.000335,0.040859,-0.055117,-17.043751,-6.91875,-21.46875
1782300053561,0.153141,1.5003,8.368801,-0.011882,0.043913,-0.06428,-17.362501,-8.1,-19.950001
1782300053567,0.196211,1.509871,8.466906,-0.010661,0.05613,-0.069777,-17.362501,-8.1,-19.950001
1782300053568,0.196211,1.509871,8.466906,-0.010661,0.05613,-0.069777,-18.768751,-5.41875,-20.831251
1782300053575,0.22014,1.526621,8.550655,-0.000276,0.078732,-0.069777,-18.768751,-5.41875,-20.831251
1782300053578,0.22014,1.526621,8.550655,-0.000276,0.078732,-0.069777,-17.868752,-4.40625,-21.731251
1782300053584,0.239282,1.555335,8.617653,0.010109,0.11233,-0.066723,-17.868752,-4.40625,-21.731251
1782300053589,0.239282,1.555335,8.617653,0.010109,0.11233,-0.066723,-17.362501,-6.61875,-21.450001
1782300053592,0.258425,1.57687,8.701402,0.018661,0.152036,-0.058171,-17.362501,-6.61875,-21.450001
1782300053598,0.258425,1.57687,8.701402,0.018661,0.152036,-0.058171,-17.493752,-7.2,-21.618752
1782300053601,0.256032,1.591227,8.79233,0.019272,0.181968,-0.045343,-17.493752,-7.2,-21.618752
1782300053608,0.256032,1.591227,8.79233,0.019272,0.181968,-0.045343,-17.231251,-6.76875,-20.550001
1782300053609,0.256032,1.57687,8.880865,0.010109,0.184412,-0.030682,-17.231251,-6.76875,-20.550001
1782300053619,0.234497,1.550549,9.074683,-0.008828,0.176471,-0.016021,-15.637501,-5.7375,-24.187502
1782300053627,0.239282,1.543371,9.357036,-0.026543,0.155701,-0.00075,-15.637501,-5.7375,-24.187502
1782300053628,0.239282,1.543371,9.357036,-0.026543,0.155701,-0.00075,-18.168751,-6.73125,-24.187502
1782300053635,0.205783,1.524228,9.644175,-0.030819,0.122714,0.011468,-18.168751,-6.73125,-24.187502
1782300053638,0.205783,1.524228,9.644175,-0.030819,0.122714,0.011468,-17.15625,-6.01875,-23.737501
1782300053644,0.179462,1.488336,9.890635,-0.015548,0.081176,0.026128,-17.15625,-6.01875,-23.737501
1782300053649,0.179462,1.488336,9.890635,-0.015548,0.081176,0.026128,-18.112501,-5.86875,-22.050001
1782300053652,0.179462,1.471586,10.053347,0.014385,0.038415,0.038346,-18.112501,-5.86875,-22.050001
1782300053658,0.179462,1.471586,10.053347,0.014385,0.038415,0.038346,-18.09375,-6.9,-21.768751
1782300053662,0.167498,1.478764,10.129918,0.052258,-0.004956,0.051785,-18.09375,-6.9,-21.768751
1782300053669,0.167498,1.478764,10.129918,0.052258,-0.004956,0.051785,-19.44375,-7.48125,-21.618752
1782300053670,0.141177,1.507478,10.146668,0.087689,-0.032445,0.068889,-19.44375,-7.48125,-21.618752
1782300053679,0.119641,1.505085,10.110775,0.113956,-0.05688,0.092102,-19.200001,-4.36875,-22.800001
1782300053687,0.11007,1.514657,10.08924,0.133503,-0.067875,0.118369,-19.200001,-4.36875,-22.800001
1782300053688,0.11007,1.514657,10.08924,0.133503,-0.067875,0.118369,-19.6875,-7.1625,-23.4375
1782300053695,0.141177,1.543371,10.094025,0.149997,-0.076428,0.139749,-19.6875,-7.1625,-23.4375
1782300053698,0.141177,1.543371,10.094025,0.149997,-0.076428,0.139749,-17.8125,-6.31875,-21.450001
1782300053704,0.143569,1.584049,10.134703,0.171988,-0.078871,0.153188,-17.8125,-6.31875,-21.450001
1782300053709,0.143569,1.584049,10.134703,0.171988,-0.078871,0.153188,-18.46875,-5.1375,-21.450001
1782300053712,0.157926,1.646262,10.170596,0.192757,-0.089867,0.162962,-18.46875,-5.1375,-21.450001
1782300053718,0.157926,1.646262,10.170596,0.192757,-0.089867,0.162962,-20.025002,-6.43125,-22.96875
1782300053721,0.150748,1.663012,10.19931,0.210472,-0.103306,0.169682,-20.025002,-6.43125,-22.96875
1782300053728,0.150748,1.663012,10.19931,0.210472,-0.103306,0.169682,-18.975,-6.73125,-22.668751
1782300053729,0.117248,1.631905,10.213666,0.219635,-0.128351,0.177012,-18.975,-6.73125,-22.668751
1782300053739,0.083749,1.509871,10.323737,0.219025,-0.150953,0.185564,-19.59375,-5.55,-23.56875
1782300053747,0.138784,1.421337,10.565411,0.214138,-0.166836,0.194727,-19.59375,-5.55,-23.56875
1782300053748,0.138784,1.421337,10.565411,0.214138,-0.166836,0.194727,-18.225,-6.75,-22.368752
1782300053755,0.217747,1.344766,10.902799,0.217803,-0.179664,0.19656,-18.225,-6.75,-22.368752
1782300053758,0.217747,1.344766,10.902799,0.217803,-0.179664,0.19656,-20.587502,-6.0,-20.550001
1782300053764,0.265603,1.270589,11.249759,0.231853,-0.162559,0.200836,-20.587502,-6.0,-20.550001
1782300053769,0.265603,1.270589,11.249759,0.231853,-0.162559,0.200836,-18.31875,-6.01875,-20.550001
1782300053772,0.284746,1.225125,11.484255,0.252011,-0.128351,0.201447,-18.31875,-6.01875,-20.550001
1782300053778,0.284746,1.225125,11.484255,0.252011,-0.128351,0.201447,-20.53125,-7.18125,-20.85
1782300053781,0.198604,1.241875,11.618253,0.271559,-0.114301,0.199003,-20.53125,-7.18125,-20.85
1782300053788,0.198604,1.241875,11.618253,0.271559,-0.114301,0.199003,-20.53125,-7.18125,-20.85
1782300053789,0.143569,1.328017,11.627824,0.292328,-0.107582,0.199614,-20.53125,-7.18125,-20.85
1782300053801,0.136391,1.421337,11.501005,0.325315,-0.079482,0.202057,-19.706251,-7.7625,-22.6875
1782300053807,0.112463,1.507478,11.323936,0.361967,-0.032445,0.203279,-19.706251,-7.7625,-22.6875
1782300053808,0.112463,1.507478,11.323936,0.361967,-0.032445,0.203279,-19.706251,-7.7625,-22.6875
1782300053815,0.050249,1.617548,11.118153,0.394954,0.030474,0.202057,-19.706251,-7.7625,-22.6875
1782300053818,0.050249,1.617548,11.118153,0.394954,0.030474,0.202057,-19.668751,-5.56875,-21.0
1782300053824,-0.100499,1.74676,10.981762,0.398008,0.083619,0.202057,-19.668751,-5.56875,-21.0
1782300053829,-0.100499,1.74676,10.981762,0.398008,0.083619,0.202057,-19.78125,-6.43125,-21.618752
1782300053832,-0.267996,1.931008,10.883657,0.368686,0.117827,0.208166,-19.78125,-6.43125,-21.618752
1782300053838,-0.267996,1.931008,10.883657,0.368686,0.117827,0.208166,-18.356251,-8.3625,-21.7875
1782300053841,-0.387637,2.031507,10.833408,0.309433,0.133099,0.220383,-18.356251,-8.3625,-21.7875
1782300053848,-0.387637,2.031507,10.833408,0.309433,0.133099,0.220383,-18.88125,-7.35,-20.25
1782300053849,-0.387637,2.031507,10.833408,0.23002,0.139819,0.23932,-18.88125,-7.35,-20.25
1782300053850,-0.430708,2.014757,10.716159,0.23002,0.139819,0.23932,-18.88125,-7.35,-20.25
1782300053860,-0.399601,1.861616,10.644374,0.122508,0.117827,0.258868,-19.368752,-8.493751,-22.6875
1782300053867,-0.397209,1.65344,10.730516,-0.005163,0.073845,0.28147,-19.368752,-8.493751,-22.6875
1782300053870,-0.397209,1.65344,10.730516,-0.005163,0.073845,0.28147,-19.725,-7.7625,-21.918751
1782300053876,-0.354138,1.409373,10.900406,-0.139553,0.009704,0.305904,-19.725,-7.7625,-21.918751
1782300053878,-0.354138,1.409373,10.900406,-0.139553,0.009704,0.305904,-18.618752,-8.512501,-22.6875
1782300053884,-0.287139,1.09352,11.103797,-0.260504,-0.062378,0.322398,-18.618752,-8.512501,-22.6875
1782300053889,-0.287139,1.09352,11.103797,-0.260504,-0.062378,0.322398,-20.325001,-7.6125,-22.06875
1782300053892,-0.287139,1.09352,11.103797,-0.352134,-0.137514,0.334615,-20.325001,-7.6125,-22.06875
1782300053893,-0.193819,0.803988,11.314365,-0.352134,-0.137514,0.334615,-20.325001,-7.6125,-22.06875
1782300053899,-0.193819,0.803988,11.314365,-0.352134,-0.137514,0.334615,-19.425001,-7.18125,-22.368752
1782300053901,-0.107677,0.538385,11.546469,-0.396116,-0.199211,0.335837,-19.425001,-7.18125,-22.368752
1782300053909,-0.107677,0.538385,11.546469,-0.396116,-0.199211,0.335837,-20.681252,-6.58125,-21.450001
1782300053910,-0.040678,0.356531,11.685253,-0.390619,-0.253578,0.326063,-20.681252,-6.58125,-21.450001
1782300053920,-0.057428,0.241675,11.565611,-0.34236,-0.275569,0.312013,-20.081251,-6.0,-21.900002
1782300053927,-0.088534,0.189033,11.189938,-0.270889,-0.292063,0.299185,-20.081251,-6.0,-21.900002
1782300053928,-0.088534,0.189033,11.189938,-0.270889,-0.292063,0.299185,-19.556252,-7.6125,-22.837502
1782300053935,-0.088534,0.189033,11.189938,-0.184146,-0.295728,0.291855,-19.556252,-7.6125,-22.837502
1782300053936,-0.062213,0.222533,10.785552,-0.184146,-0.295728,0.291855,-19.556252,-7.6125,-22.837502
1782300053938,-0.062213,0.222533,10.785552,-0.184146,-0.295728,0.291855,-20.1,-7.18125,-20.1
1782300053944,0.150748,0.538385,10.450556,-0.08824,-0.29023,0.285135,-20.1,-7.18125,-20.1
1782300053949,0.150748,0.538385,10.450556,-0.08824,-0.29023,0.285135,-20.0625,-7.18125,-21.618752
1782300053953,0.028714,0.471386,10.266308,0.014385,-0.24075,0.269253,-20.0625,-7.18125,-21.618752
1782300053959,0.028714,0.471386,10.266308,0.014385,-0.24075,0.269253,-22.087502,-5.98125,-20.85
1782300053961,0.050249,0.605384,9.754244,0.112734,-0.145455,0.289411,-22.087502,-5.98125,-20.85
1782300053971,-0.18664,0.674776,9.330715,0.182984,-0.053215,0.300407,-20.643751,-6.8625,-22.518751
1782300053979,0.045464,1.009771,8.732509,0.20192,0.02803,0.334004,-21.243752,-7.74375,-21.918751
1782300053987,0.141177,1.179662,8.524334,0.176264,0.03475,0.307126,-21.243752,-7.74375,-21.918751
1782300053988,0.141177,1.179662,8.524334,0.176264,0.03475,0.307126,-20.887501,-6.54375,-24.337502
1782300053996,0.071785,1.268196,8.68226,0.129838,0.037804,0.289411,-20.887501,-6.54375,-24.337502
1782300053998,0.071785,1.268196,8.68226,0.129838,0.037804,0.289411,-21.0375,-5.55,-21.0
1782300054004,0.083749,1.136591,8.639189,0.080358,0.035972,0.289411,-21.0375,-5.55,-21.0
1782300054009,0.083749,1.136591,8.639189,0.080358,0.035972,0.289411,-20.34375,-6.5625,-22.81875
1782300054013,0.155533,0.930808,8.543477,0.017439,0.026809,0.277805,-20.34375,-6.5625,-22.81875
1782300054018,0.155533,0.930808,8.543477,0.017439,0.026809,0.277805,-20.793751,-6.7125,-22.368752
1782300054021,0.055035,0.79681,8.593726,-0.047313,-0.001902,0.259479,-20.793751,-6.7125,-22.368752
1782300054028,0.055035,0.79681,8.593726,-0.047313,-0.001902,0.259479,-22.012501,-7.44375,-21.618752
1782300054030,-0.074178,0.753739,8.835401,-0.085186,-0.034278,0.243596,-22.012501,-7.44375,-21.618752
1782300054041,-0.083749,0.636491,9.07229,-0.090073,-0.020839,0.226492,-21.768751,-5.08125,-22.050001
1782300054047,-0.09332,0.581456,8.983756,-0.070525,0.017646,0.21122,-21.768751,-5.08125,-22.050001
1782300054048,-0.09332,0.581456,8.983756,-0.070525,0.017646,0.21122,-22.21875,-5.8125,-21.450001
1782300054056,-0.11007,0.612563,8.768402,-0.056475,0.039026,0.195949,-22.21875,-5.8125,-21.450001
1782300054059,-0.11007,0.612563,8.768402,-0.056475,0.039026,0.195949,-20.400002,-5.55,-21.75
1782300054064,-0.129212,0.655633,8.584155,-0.055865,0.055519,0.186175,-20.400002,-5.55,-21.75
1782300054070,-0.129212,0.655633,8.584155,-0.055865,0.055519,0.186175,-21.450001,-6.28125,-21.450001
1782300054073,-0.07657,0.631705,8.440585,-0.07358,0.078121,0.184342,-21.450001,-6.28125,-21.450001
1782300054079,-0.07657,0.631705,8.440585,-0.07358,0.078121,0.184342,-21.581251,-5.38125,-22.96875
1782300054081,0.019143,0.538385,8.41905,-0.101679,0.114162,0.179455,-21.581251,-5.38125,-22.96875
1782300054088,0.019143,0.538385,8.41905,-0.101679,0.114162,0.179455,-20.737501,-7.74375,-23.4375
1782300054090,0.050249,0.459422,8.536298,-0.129168,0.136153,0.162962,-20.737501,-7.74375,-23.4375
1782300054099,0.050249,0.459422,8.536298,-0.160933,0.123936,0.136084,-20.737501,-7.74375,-23.4375
1782300054100,0.074178,0.430708,8.639189,-0.160933,0.123936,0.136084,-20.85,-5.4,-21.900002
1782300054107,0.062213,0.411565,8.789938,-0.193309,0.061628,0.102486,-20.85,-5.4,-21.900002
1782300054108,0.062213,0.411565,8.789938,-0.193309,0.061628,0.102486,-21.46875,-5.08125,-22.050001
1782300054116,0.031107,0.394816,8.943078,-0.213468,-0.038554,0.064613,-21.46875,-5.08125,-22.050001
1782300054118,0.031107,0.394816,8.943078,-0.213468,-0.038554,0.064613,-22.012501,-5.9625,-22.668751
1782300054124,-0.009571,0.409173,8.97897,-0.204916,-0.143623,0.028572,-22.012501,-5.9625,-22.668751
1782300054129,-0.009571,0.409173,8.97897,-0.204916,-0.143623,0.028572,-21.0375,-6.28125,-19.931252
1782300054133,-0.014357,0.468993,8.8689,-0.163988,-0.222424,-0.003804,-21.0375,-6.28125,-19.931252
1782300054138,-0.014357,0.468993,8.8689,-0.163988,-0.222424,-0.003804,-22.1625,-5.5125,-23.268751
1782300054141,-0.014357,0.550349,8.663118,-0.105345,-0.260909,-0.026406,-22.1625,-5.5125,-23.268751
1782300054149,-0.014357,0.550349,8.663118,-0.105345,-0.260909,-0.026406,-23.85,-6.675,-21.618752
1782300054150,-0.074178,0.634098,8.392728,-0.050978,-0.262741,-0.036791,-23.85,-6.675,-21.618752
1782300054160,-0.059821,0.70349,8.007484,-0.026543,-0.229755,-0.02946,-22.275002,-5.53125,-20.231251
1782300054167,0.047856,0.739382,7.794523,-0.047313,-0.190048,-0.013578,-22.275002,-5.53125,-20.231251
1782300054168,0.047856,0.739382,7.794523,-0.047313,-0.190048,-0.013578,-22.481251,-5.8125,-22.81875
1782300054180,0.143569,0.775275,7.909379,-0.102901,-0.123464,0.010857,-22.5,-5.0625,-22.81875
1782300054185,0.284746,0.811167,8.232409,-0.155436,-0.039165,0.03468,-22.5,-5.0625,-22.81875
1782300054189,0.284746,0.811167,8.232409,-0.155436,-0.039165,0.03468,-22.462502,-6.24375,-22.81875
1782300054193,0.404387,0.792024,8.679867,-0.184757,0.041469,0.042011,-22.462502,-6.24375,-22.81875
1782300054198,0.404387,0.792024,8.679867,-0.184757,0.041469,0.042011,-21.712502,-6.2625,-22.81875
1782300054201,0.442672,0.808774,9.065112,-0.175594,0.098891,0.036513,-21.712502,-6.2625,-22.81875
1782300054209,0.442672,0.808774,9.065112,-0.175594,0.098891,0.036513,-22.237501,-4.35,-22.050001
1782300054210,0.401994,0.808774,9.330715,-0.120005,0.12699,0.023074,-22.237501,-4.35,-22.050001
1782300054219,0.37328,0.825524,9.392929,-0.035706,0.145316,0.008413,-22.21875,-5.08125,-22.050001
1782300054227,0.31346,0.847059,9.239788,0.059589,0.150203,-0.016632,-22.21875,-5.08125,-22.050001
1782300054228,0.31346,0.847059,9.239788,0.059589,0.150203,-0.016632,-22.6875,-4.93125,-21.6
1782300054236,0.251246,0.892523,9.031612,0.136558,0.154479,-0.044121,-22.6875,-4.93125,-21.6
1782300054238,0.251246,0.892523,9.031612,0.136558,0.154479,-0.044121,-22.331251,-5.3625,-22.96875
1782300054244,0.215354,0.964308,8.804294,0.171377,0.146538,-0.070999,-22.331251,-5.3625,-22.96875
1782300054249,0.215354,0.964308,8.804294,0.171377,0.146538,-0.070999,-22.40625,-4.2,-21.900002
1782300054253,0.145962,1.07677,8.710974,0.165879,0.130656,-0.091769,-22.40625,-4.2,-21.900002
1782300054259,0.145962,1.07677,8.710974,0.165879,0.130656,-0.091769,-22.1625,-6.2625,-22.518751
1782300054262,0.045464,1.208375,8.758831,0.142666,0.108054,-0.105818,-22.1625,-6.2625,-22.518751
1782300054268,0.045464,1.208375,8.758831,0.142666,0.108054,-0.105818,-22.1625,-6.2625,-22.518751
1782300054270,0.045464,1.208375,8.758831,0.124951,0.103167,-0.116203,-22.1625,-6.2625,-22.518751
1782300054271,-0.004786,1.339981,8.854543,0.124951,0.103167,-0.116203,-22.1625,-6.2625,-22.518751
1782300054286,-0.043071,1.452443,8.931114,0.126173,0.106832,-0.124144,-22.96875,-5.5125,-21.75
1782300054289,-0.074178,1.586441,8.959828,0.150608,0.109275,-0.130864,-22.650002,-6.4125,-21.618752
1782300054296,-0.066999,1.713261,8.947863,0.181151,0.108054,-0.13514,-22.650002,-6.4125,-21.618752
1782300054298,-0.066999,1.713261,8.947863,0.181151,0.108054,-0.13514,-22.9125,-6.84375,-22.06875
1782300054305,-0.098106,1.787439,8.909578,0.200699,0.097058,-0.140027,-22.9125,-6.84375,-22.06875
1782300054309,-0.098106,1.787439,8.909578,0.200699,0.097058,-0.140027,-21.618752,-4.93125,-22.35
1782300054313,-0.107677,1.811367,8.938292,0.19459,0.067737,-0.144914,-21.618752,-4.93125,-22.35
1782300054318,-0.107677,1.811367,8.938292,0.19459,0.067737,-0.144914,-22.612501,-5.3625,-23.418751
1782300054322,-0.102891,1.852045,9.101004,0.163436,0.026198,-0.154688,-22.612501,-5.3625,-23.418751
1782300054329,-0.102891,1.852045,9.101004,0.163436,0.026198,-0.154688,-23.15625,-4.93125,-21.13125
1782300054330,-0.098106,1.880759,9.34268,0.12434,-0.026947,-0.166905,-23.15625,-4.93125,-21.13125
1782300054339,-0.081356,1.864009,9.636997,0.089521,-0.083758,-0.179733,-23.15625,-4.93125,-21.13125
1782300054340,-0.081356,1.864009,9.636997,0.089521,-0.083758,-0.179733,-24.243752,-4.9125,-20.53125
1782300054349,-0.062213,1.828117,9.988741,0.064476,-0.12774,-0.193783,-22.5,-4.78125,-23.268751
1782300054356,-0.007178,1.816152,10.287844,0.056534,-0.141179,-0.204168,-22.5,-4.78125,-23.268751
1782300054358,-0.007178,1.816152,10.287844,0.056534,-0.141179,-0.204168,-22.63125,-5.6625,-22.668751
1782300054365,0.055035,1.792224,10.481662,0.059589,-0.127129,-0.212109,-22.63125,-5.6625,-22.668751
1782300054369,0.055035,1.792224,10.481662,0.059589,-0.127129,-0.212109,-22.5,-6.2625,-21.450001
1782300054373,0.088534,1.734796,10.632411,0.063865,-0.103916,-0.216385,-22.5,-6.2625,-21.450001
1782300054378,0.088534,1.734796,10.632411,0.063865,-0.103916,-0.216385,-22.050001,-5.6625,-22.368752
1782300054382,0.090927,1.684547,10.785552,0.065697,-0.078871,-0.216996,-22.050001,-5.6625,-22.368752
1782300054388,0.090927,1.684547,10.785552,0.065697,-0.078871,-0.216996,-22.875,-6.825,-23.2875
1782300054390,0.124427,1.629512,10.976977,0.068141,-0.04283,-0.213942,-22.875,-6.825,-23.2875
1782300054399,0.236889,1.512264,11.170796,0.069974,-0.008011,-0.211498,-23.212502,-7.275,-22.06875
1782300054409,0.337388,1.335195,11.436399,0.073028,0.033528,-0.210276,-23.19375,-7.575,-22.06875
1782300054416,0.387637,1.182054,11.761823,0.079136,0.0769,-0.204779,-23.19375,-7.575,-22.06875
1782300054418,0.387637,1.182054,11.761823,0.079136,0.0769,-0.204779,-20.831251,-7.1625,-20.85
1782300054425,0.435494,1.143769,12.001105,0.094408,0.123325,-0.197448,-20.831251,-7.1625,-20.85
1782300054429,0.435494,1.143769,12.001105,0.094408,0.123325,-0.197448,-25.06875,-6.225,-21.768751
1782300054433,0.442672,1.239482,12.063319,0.131671,0.152647,-0.189507,-25.06875,-6.225,-21.768751
1782300054439,0.442672,1.239482,12.063319,0.131671,0.152647,-0.189507,-24.31875,-6.54375,-21.0
1782300054442,0.368495,1.402194,11.919749,0.195812,0.16181,-0.176679,-24.31875,-6.54375,-21.0
1782300054448,0.368495,1.402194,11.919749,0.195812,0.16181,-0.176679,-24.150002,-6.375,-21.918751
1782300054450,0.306281,1.612762,11.630217,0.280722,0.150814,-0.155298,-24.150002,-6.375,-21.918751
1782300054459,0.253639,1.753939,11.213867,0.352804,0.128823,-0.130253,-23.25,-6.54375,-21.46875
1782300054469,0.174676,1.81376,10.842979,0.372962,0.090949,-0.103375,-23.137501,-4.63125,-22.35
1782300054476,0.090927,1.892723,10.77598,0.329591,0.041469,-0.077108,-23.137501,-4.63125,-22.35
1782300054478,0.090927,1.892723,10.77598,0.329591,0.041469,-0.077108,-22.5,-5.5125,-22.518751
1782300054487,0.014357,2.005185,10.780765,0.236129,0.006039,-0.058782,-22.5,-5.5125,-22.518751
1782300054489,0.014357,2.005185,10.780765,0.236129,0.006039,-0.058782,-24.0375,-6.24375,-20.700001
1782300054493,-0.045464,2.029114,10.811872,0.107236,-0.02878,-0.045343,-24.0375,-6.24375,-20.700001
1782300054499,-0.045464,2.029114,10.811872,0.107236,-0.02878,-0.045343,-23.137501,-6.7125,-20.1
1782300054502,-0.071785,1.892723,10.864514,-0.039371,-0.057491,-0.038012,-23.137501,-6.7125,-20.1
1782300054508,-0.071785,1.892723,10.864514,-0.039371,-0.057491,-0.038012,-24.31875,-5.79375,-21.75
1782300054510,-0.059821,1.631905,10.993726,-0.185368,-0.093532,-0.039845,-24.31875,-5.79375,-21.75
1782300054520,-0.050249,1.289731,11.218652,-0.316704,-0.12774,-0.055117,-24.13125,-6.675,-21.918751
1782300054529,-0.040678,0.916451,11.501005,-0.410166,-0.152786,-0.07894,-24.150002,-6.675,-21.618752
1782300054536,0.038285,0.569492,11.862321,-0.454148,-0.156451,-0.10704,-24.150002,-6.675,-21.618752
1782300054538,0.038285,0.569492,11.862321,-0.454148,-0.156451,-0.10704,-24.0,-7.275,-20.700001
1782300054545,0.141177,0.277567,12.068104,-0.432157,-0.124686,-0.139416,-24.0,-7.275,-20.700001
1782300054549,0.141177,0.277567,12.068104,-0.432157,-0.124686,-0.139416,-26.418751,-5.90625,-22.368752
1782300054553,0.234497,0.081356,11.907785,-0.355188,-0.066043,-0.164461,-26.418751,-5.90625,-22.368752
1782300054559,0.234497,0.081356,11.907785,-0.355188,-0.066043,-0.164461,-24.637501,-6.39375,-20.550001
1782300054562,0.346959,0.055035,11.484255,-0.252563,-0.008622,-0.180955,-24.637501,-6.39375,-20.550001
1782300054568,0.346959,0.055035,11.484255,-0.252563,-0.008622,-0.180955,-24.88125,-6.375,-22.668751
1782300054570,0.485743,0.114855,11.067904,-0.137721,0.029252,-0.195005,-24.88125,-6.375,-22.668751
1782300054579,0.617348,0.200997,10.646767,-0.028376,0.068347,-0.204779,-25.63125,-5.90625,-22.96875
1782300054589,0.696311,0.325424,10.235202,0.057756,0.11233,-0.213331,-25.63125,-7.10625,-21.918751
1782300054596,0.710668,0.437887,9.895422,0.101128,0.16181,-0.222494,-25.63125,-7.10625,-21.918751
1782300054598,0.710668,0.437887,9.895422,0.101128,0.16181,-0.222494,-24.956251,-6.69375,-19.800001
1782300054605,0.636491,0.545564,9.689639,0.097462,0.202127,-0.231046,-24.956251,-6.69375,-19.800001
1782300054609,0.636491,0.545564,9.689639,0.097462,0.202127,-0.231046,-25.031252,-7.25625,-22.06875
1782300054613,0.478565,0.591027,9.601104,0.054702,0.224729,-0.240209,-25.031252,-7.25625,-22.06875
1782300054619,0.478565,0.591027,9.601104,0.054702,0.224729,-0.240209,-25.968752,-6.65625,-21.150002
1782300054622,0.323031,0.607777,9.608283,-0.005163,0.238168,-0.251204,-25.968752,-6.65625,-21.150002
1782300054628,0.323031,0.607777,9.608283,-0.005163,0.238168,-0.251204,-25.575001,-5.04375,-21.0
1782300054630,0.141177,0.547956,9.615461,-0.065638,0.225951,-0.2622,-25.575001,-5.04375,-21.0
1782300054640,0.069392,0.437887,9.701602,-0.106566,0.196018,-0.272585,-26.550001,-6.20625,-22.81875
1782300054649,0.059821,0.339781,9.799708,-0.115729,0.169751,-0.285413,-23.85,-5.94375,-22.368752
1782300054656,0.055035,0.294317,9.782959,-0.097403,0.144706,-0.301295,-23.85,-5.94375,-22.368752
1782300054658,0.055035,0.294317,9.782959,-0.097403,0.144706,-0.301295,-25.012501,-7.9875,-21.768751
1782300054665,0.090927,0.251246,9.589139,-0.067471,0.119049,-0.315956,-25.012501,-7.9875,-21.768751
1782300054669,0.090927,0.251246,9.589139,-0.067471,0.119049,-0.315956,-24.150002,-5.94375,-22.368752
1782300054673,0.102891,0.22014,9.251751,-0.047313,0.067737,-0.329395,-24.150002,-5.94375,-22.368752
1782300054679,0.102891,0.22014,9.251751,-0.047313,0.067737,-0.329395,-24.656252,-7.5375,-23.587502
1782300054682,0.088534,0.22014,8.993327,-0.049145,-0.004956,-0.338558,-24.656252,-7.5375,-23.587502
1782300054688,0.088534,0.22014,8.993327,-0.049145,-0.004956,-0.338558,-25.81875,-5.775,-22.06875
1782300054690,0.074178,0.210568,8.859329,-0.071747,-0.091699,-0.345888,-25.81875,-5.775,-22.06875
1782300054699,0.088534,0.20339,8.890436,-0.105345,-0.171112,-0.353219,-23.025002,-6.675,-23.737501
1782300054709,0.138784,0.222533,8.969399,-0.135888,-0.221813,-0.353219,-23.231251,-5.79375,-22.518751
1782300054717,0.198604,0.267996,9.043577,-0.159712,-0.234641,-0.348943,-23.231251,-5.79375,-22.518751
1782300054718,0.198604,0.267996,9.043577,-0.159712,-0.234641,-0.348943,-22.650002,-5.3625,-22.668751
1782300054725,0.284746,0.325424,9.036397,-0.187201,-0.208985,-0.341001,-22.650002,-5.3625,-22.668751
1782300054728,0.284746,0.325424,9.036397,-0.187201,-0.208985,-0.341001,-25.031252,-5.475,-23.56875
1782300054734,0.035892,0.299103,8.844972,-0.217133,-0.143623,-0.321454,-25.031252,-5.475,-23.56875
1782300054739,0.035892,0.299103,8.844972,-0.217133,-0.143623,-0.321454,-24.0,-6.24375,-22.06875
1782300054742,0.002393,0.39003,8.632011,-0.245844,-0.112469,-0.284802,-24.0,-6.24375,-22.06875
1782300054748,0.002393,0.39003,8.632011,-0.245844,-0.112469,-0.284802,-24.0,-6.24375,-22.06875
1782300054751,-0.002393,0.485743,8.541084,-0.252563,-0.067265,-0.253648,-24.0,-6.24375,-22.06875
1782300054759,-0.002393,0.485743,8.541084,-0.252563,-0.067265,-0.253648,-24.6,-7.425,-20.868752
1782300054761,-0.050249,0.629312,8.493228,-0.210413,-0.016563,-0.223104,-24.6,-7.425,-20.868752
1782300054769,-0.078963,0.775275,8.356836,-0.120616,0.055519,-0.195005,-24.6,-7.425,-20.868752
1782300054770,-0.078963,0.775275,8.356836,-0.120616,0.055519,-0.195005,-24.13125,-5.94375,-22.668751
1782300054777,-0.069392,0.880559,8.081662,-0.015548,0.141651,-0.174235,-24.13125,-5.94375,-22.668751
1782300054779,-0.069392,0.880559,8.081662,-0.015548,0.141651,-0.174235,-24.862501,-7.40625,-21.918751
1782300054785,-0.069392,0.880559,8.081662,0.072417,0.210068,-0.165072,-24.862501,-7.40625,-21.918751
1782300054786,-0.086142,0.985843,7.796916,0.072417,0.210068,-0.165072,-24.862501,-7.40625,-21.918751
1782300054789,-0.086142,0.985843,7.796916,0.072417,0.210068,-0.165072,-22.950001,-6.24375,-21.768751
1782300054806,-0.172283,1.241875,7.46192,0.102349,0.230227,-0.158353,-26.625002,-7.66875,-23.75625
1782300054809,-0.172283,1.241875,7.46192,0.102349,0.230227,-0.158353,-25.687502,-6.675,-20.550001
1782300054811,-0.18664,1.337588,7.519348,0.055924,0.193575,-0.154077,-25.687502,-6.675,-20.550001
1782300054819,-0.18664,1.337588,7.519348,0.055924,0.193575,-0.154077,-24.618752,-6.675,-21.150002
1782300054820,-0.167498,1.378266,7.650953,-0.00333,0.158755,-0.14919,-24.618752,-6.675,-21.150002
1782300054830,-0.143569,1.399801,7.804094,-0.058308,0.13371,-0.145525,-25.743752,-7.5375,-22.837502
1782300054837,-0.191426,1.416551,8.007484,-0.097403,0.104388,-0.140027,-25.743752,-7.5375,-22.837502
1782300054839,-0.191426,1.416551,8.007484,-0.097403,0.104388,-0.140027,-24.69375,-6.80625,-23.2875
1782300054846,-0.167498,1.452443,8.213267,-0.113897,0.083619,-0.123534,-24.69375,-6.80625,-23.2875
1782300054849,-0.167498,1.452443,8.213267,-0.113897,0.083619,-0.123534,-25.762501,-7.5375,-22.06875
1782300054855,-0.098106,1.440479,8.399907,-0.105956,0.072013,-0.102153,-25.762501,-7.5375,-22.06875
1782300054860,-0.098106,1.440479,8.399907,-0.105956,0.072013,-0.102153,-24.281252,-7.275,-21.768751
1782300054862,-0.098106,1.440479,8.399907,-0.075412,0.059184,-0.080162,-24.281252,-7.275,-21.768751
1782300054863,-0.035892,1.435694,8.579369,-0.075412,0.059184,-0.080162,-24.281252,-7.275,-21.768751
1782300054869,-0.035892,1.435694,8.579369,-0.075412,0.059184,-0.080162,-25.931252,-6.65625,-22.368752
1782300054871,-0.023928,1.440479,8.734902,-0.030208,0.053687,-0.058171,-25.931252,-6.65625,-22.368752
1782300054878,-0.023928,1.440479,8.734902,-0.030208,0.053687,-0.058171,-24.900002,-5.925,-22.368752
1782300054880,-0.035892,1.438086,8.85215,0.016828,0.053687,-0.038623,-24.900002,-5.925,-22.368752
1782300054890,-0.023928,1.418944,8.950256,0.05348,0.050021,-0.024573,-24.618752,-6.675,-21.150002
1782300054901,0.01675,1.418944,9.029219,0.069974,0.034139,-0.013578,-24.093752,-6.675,-23.4375
1782300054906,0.043071,1.395016,9.172789,0.068141,0.012759,-0.001361,-24.093752,-6.675,-23.4375
1782300054910,0.043071,1.395016,9.172789,0.068141,0.012759,-0.001361,-23.90625,-7.55625,-23.587502
1782300054914,0.043071,1.395016,9.172789,0.069363,0.000541,0.011468,-23.90625,-7.55625,-23.587502
1782300054915,0.064606,1.385444,9.380964,0.069363,0.000541,0.011468,-23.90625,-7.55625,-23.587502
1782300054921,0.064606,1.385444,9.380964,0.069363,0.000541,0.011468,-24.356251,-5.79375,-20.700001
1782300054922,0.064606,1.385444,9.380964,0.08158,-0.004345,0.02002,-24.356251,-5.79375,-20.700001
1782300054923,0.066999,1.366302,9.534105,0.08158,-0.004345,0.02002,-24.356251,-5.79375,-20.700001
1782300054928,0.066999,1.366302,9.534105,0.08158,-0.004345,0.02002,-26.268751,-4.725,-23.56875
1782300054931,0.066999,1.387837,9.617854,0.107847,-0.00068,0.026739,-26.268751,-4.725,-23.56875
1782300054938,0.066999,1.387837,9.617854,0.107847,-0.00068,0.026739,-25.331251,-7.40625,-21.918751
1782300054940,0.052642,1.464407,9.66571,0.146332,-0.001291,0.031626,-25.331251,-7.40625,-21.918751
1782300054950,0.052642,1.464407,9.66571,0.189703,-0.009843,0.035902,-25.331251,-7.40625,-21.918751
1782300054951,0.045464,1.521835,9.69921,0.189703,-0.009843,0.035902,-25.81875,-5.775,-22.518751
1782300054958,0.045464,1.521835,9.69921,0.224522,-0.015952,0.0414,-25.81875,-5.775,-22.518751
1782300054959,0.086142,1.550549,9.696817,0.224522,-0.015952,0.0414,-24.806252,-5.79375,-20.700001
1782300054966,0.131605,1.555335,9.744673,0.240405,-0.026337,0.045065,-24.806252,-5.79375,-20.700001
1782300054969,0.131605,1.555335,9.744673,0.240405,-0.026337,0.045065,-25.406252,-7.96875,-23.2875
1782300054975,0.160319,1.569692,9.897814,0.233074,-0.031224,0.049952,-25.406252,-7.96875,-23.2875
1782300054980,0.160319,1.569692,9.897814,0.233074,-0.031224,0.049952,-24.187502,-5.34375,-21.900002
1782300054983,0.160319,1.569692,9.897814,0.211083,-0.033667,0.05545,-24.187502,-5.34375,-21.900002
1782300054984,0.189033,1.586441,10.161025,0.211083,-0.033667,0.05545,-24.187502,-5.34375,-21.900002
1782300054989,0.189033,1.586441,10.161025,0.211083,-0.033667,0.05545,-25.387501,-5.625,-21.6
1782300054991,0.189033,1.586441,10.161025,0.186038,-0.029391,0.066445,-25.387501,-5.625,-21.6
1782300055004,0.277567,1.51705,10.802301,0.156105,-0.018395,0.080495,-26.550001,-6.7875,-22.06875
1782300055010,0.277567,1.51705,10.802301,0.132893,0.009704,0.096989,-26.550001,-6.7875,-22.06875
1782300055011,0.315853,1.418944,11.118153,0.132893,0.009704,0.096989,-26.400002,-6.35625,-22.368752
1782300055017,0.378066,1.31366,11.424435,0.124951,0.042691,0.115315,-26.400002,-6.35625,-22.368752
1782300055018,0.378066,1.31366,11.424435,0.124951,0.042691,0.115315,-27.13125,-7.66875,-21.618752
1782300055026,0.392423,1.198804,11.692431,0.141445,0.079954,0.130586,-27.13125,-7.66875,-21.618752
1782300055029,0.392423,1.198804,11.692431,0.141445,0.079954,0.130586,-25.931252,-7.3875,-21.618752
1782300055035,0.349352,1.124627,11.857536,0.181762,0.100112,0.138527,-25.931252,-7.3875,-21.618752
1782300055040,0.349352,1.124627,11.857536,0.181762,0.100112,0.138527,-25.63125,-6.65625,-22.668751
1782300055044,0.270389,1.088734,11.958034,0.230631,0.100112,0.136695,-25.63125,-6.65625,-22.668751
1782300055049,0.270389,1.088734,11.958034,0.230631,0.100112,0.136695,-25.63125,-6.65625,-22.368752
1782300055052,0.189033,1.165305,11.948463,0.274002,0.088506,0.131808,-25.63125,-6.65625,-22.368752
1782300055059,0.189033,1.165305,11.948463,0.274002,0.088506,0.131808,-27.300001,-7.2375,-21.768751
1782300055060,0.107677,1.383052,11.864714,0.308822,0.068958,0.126921,-27.300001,-7.2375,-21.768751
1782300055069,0.107677,1.383052,11.864714,0.308822,0.068958,0.126921,-24.825001,-7.0875,-23.737501
1782300055070,0.045464,1.598405,11.730716,0.334478,0.051854,0.125088,-24.825001,-7.0875,-23.737501
1782300055078,0.007178,1.708475,11.627824,0.351582,0.050021,0.133641,-24.825001,-7.0875,-23.737501
1782300055079,0.007178,1.708475,11.627824,0.351582,0.050021,0.133641,-25.63125,-6.35625,-22.96875
1782300055086,-0.086142,1.639084,11.517755,0.351582,0.069569,0.150745,-25.63125,-6.35625,-22.96875
1782300055089,-0.086142,1.639084,11.517755,0.351582,0.069569,0.150745,-25.500002,-5.025,-23.56875
1782300055095,-0.272782,1.584049,11.489041,0.320428,0.090339,0.173347,-25.500002,-5.025,-23.56875
1782300055100,-0.272782,1.584049,11.489041,0.320428,0.090339,0.173347,-27.262501,-6.46875,-23.587502
1782300055115,-0.729811,1.761117,11.690038,0.228187,0.065904,0.219162,-26.38125,-6.3375,-22.96875
1782300055119,-0.729811,1.761117,11.690038,0.228187,0.065904,0.219162,-25.781252,-6.80625,-22.518751
1782300055120,-0.825524,1.765903,11.635004,0.203753,0.040859,0.241764,-25.781252,-6.80625,-22.518751
1782300055130,-0.801596,1.68694,11.31915,0.18054,0.019478,0.263755,-27.31875,-6.1875,-22.06875
1782300055137,-0.679562,1.478764,10.953049,0.126784,-0.001902,0.282692,-27.31875,-6.1875,-22.06875
1782300055138,-0.679562,1.478764,10.953049,0.126784,-0.001902,0.282692,-25.9125,-7.0875,-22.6875
1782300055146,-0.579063,1.172483,10.82623,0.027824,-0.032445,0.296131,-25.9125,-7.0875,-22.6875
1782300055148,-0.579063,1.172483,10.82623,0.027824,-0.032445,0.296131,-25.312502,-6.35625,-23.4375
1782300055154,-0.579063,1.172483,10.82623,-0.099236,-0.068486,0.304683,-25.312502,-6.35625,-23.4375
1782300055155,-0.514457,0.902094,10.883657,-0.099236,-0.068486,0.304683,-25.312502,-6.35625,-23.4375
1782300055160,-0.514457,0.902094,10.883657,-0.099236,-0.068486,0.304683,-27.450001,-7.36875,-21.918751
1782300055163,-0.425922,0.679562,11.11576,-0.218355,-0.117966,0.307126,-27.450001,-7.36875,-21.918751
1782300055169,-0.425922,0.679562,11.11576,-0.218355,-0.117966,0.307126,-25.35,-5.625,-22.96875
1782300055172,-0.318245,0.428315,11.460327,-0.282495,-0.16989,0.303461,-25.35,-5.625,-22.96875
1782300055179,-0.318245,0.428315,11.460327,-0.282495,-0.16989,0.303461,-27.918751,-6.6375,-21.918751
1782300055180,-0.246461,0.212961,11.654146,-0.256839,-0.190048,0.293076,-27.918751,-6.6375,-21.918751
1782300055190,-0.246461,0.212961,11.654146,-0.15849,-0.188216,0.275972,-27.918751,-6.6375,-21.918751
1782300055191,-0.227318,0.141177,11.558433,-0.15849,-0.188216,0.275972,-26.625002,-5.025,-21.450001
1782300055197,-0.227318,0.141177,11.558433,-0.017991,-0.181496,0.253981,-26.625002,-5.025,-21.450001
1782300055198,-0.282353,0.248854,11.161224,-0.017991,-0.181496,0.253981,-25.668751,-5.625,-22.368752
1782300055211,-0.327817,0.457029,10.606089,0.13106,-0.185772,0.234433,-25.668751,-5.625,-22.368752
1782300055215,-0.33021,0.717847,9.99592,0.252622,-0.18394,0.219162,-25.668751,-5.625,-22.368752
1782300055219,-0.33021,0.717847,9.99592,0.252622,-0.18394,0.219162,-27.150002,-6.3375,-22.368752
1782300055223,-0.363709,0.985843,9.414464,0.325926,-0.171722,0.21061,-27.150002,-6.3375,-22.368752
1782300055229,-0.363709,0.985843,9.414464,0.325926,-0.171722,0.21061,-26.643751,-4.29375,-21.75
1782300055231,-0.363709,0.985843,9.414464,0.340587,-0.14912,0.21122,-26.643751,-4.29375,-21.75
1782300055232,-0.308674,1.289731,8.935899,0.340587,-0.14912,0.21122,-26.643751,-4.29375,-21.75
1782300055239,-0.308674,1.289731,8.935899,0.340587,-0.14912,0.21122,-26.231251,-5.75625,-23.56875
1782300055241,-0.332602,1.342373,8.667903,0.298437,-0.118577,0.208166,-26.231251,-5.75625,-23.56875
1782300055251,-0.265603,1.4668,8.433406,0.222079,-0.089256,0.211831,-27.225,-4.125,-22.35
1782300055257,-0.265603,1.4668,8.433406,0.116399,-0.072762,0.200225,-27.225,-4.125,-22.35
1782300055258,-0.160319,1.478764,8.366408,0.116399,-0.072762,0.200225,-27.225,-4.125,-22.35
1782300055259,-0.160319,1.478764,8.366408,0.116399,-0.072762,0.200225,-26.700001,-5.90625,-22.96875
1782300055266,-0.160319,1.478764,8.366408,-0.004552,-0.062988,0.192284,-26.700001,-5.90625,-22.96875
1782300055267,-0.162712,1.428515,8.375979,-0.004552,-0.062988,0.192284,-26.700001,-5.90625,-22.96875
1782300055269,-0.162712,1.428515,8.375979,-0.004552,-0.062988,0.192284,-28.012501,-7.21875,-22.837502
1782300055274,-0.162712,1.428515,8.375979,-0.117562,-0.079482,0.188008,-28.012501,-7.21875,-22.837502
1782300055275,-0.181855,1.320838,8.488441,-0.117562,-0.079482,0.188008,-28.012501,-7.21875,-22.837502
1782300055279,-0.181855,1.320838,8.488441,-0.117562,-0.079482,0.188008,-28.387501,-5.00625,-22.81875
1782300055284,-0.239282,1.119841,8.701402,-0.202472,-0.111247,0.183731,-28.387501,-5.00625,-22.81875
1782300055289,-0.239282,1.119841,8.701402,-0.202472,-0.111247,0.183731,-28.5375,-5.8875,-22.368752
1782300055292,-0.239282,1.119841,8.701402,-0.246454,-0.135071,0.179455,-28.5375,-5.8875,-22.368752
1782300055293,-0.339781,0.894916,8.928721,-0.246454,-0.135071,0.179455,-28.5375,-5.8875,-22.368752
1782300055299,-0.339781,0.894916,8.928721,-0.246454,-0.135071,0.179455,-25.462502,-5.75625,-24.0375
1782300055301,-0.339781,0.894916,8.928721,-0.242789,-0.125908,0.174568,-25.462502,-5.75625,-24.0375
1782300055312,-0.411565,0.519243,9.062719,-0.213468,-0.083147,0.170903,-26.887501,-3.975,-23.56875
1782300055318,-0.42353,0.378066,8.907185,-0.189644,-0.047717,0.170292,-26.887501,-3.975,-23.56875
1782300055319,-0.42353,0.378066,8.907185,-0.189644,-0.047717,0.170292,-27.618752,-5.00625,-23.56875
1782300055339,-0.282353,0.275175,8.842579,-0.206748,0.007261,0.191062,-27.300001,-5.7375,-23.268751
1782300055340,-0.282353,0.275175,8.842579,-0.206748,0.007261,0.191062,-27.337502,-5.45625,-22.518751
1782300055344,-0.198604,0.301496,8.909578,-0.217744,0.043913,0.202057,-27.337502,-5.45625,-22.518751
1782300055349,-0.198604,0.301496,8.909578,-0.217744,0.043913,0.202057,-28.556252,-3.35625,-24.168751
1782300055352,-0.119641,0.315853,8.914363,-0.199418,0.07751,0.21061,-28.556252,-3.35625,-24.168751
1782300055359,-0.119641,0.315853,8.914363,-0.199418,0.07751,0.21061,-29.043751,-4.10625,-22.35
1782300055360,-0.119641,0.315853,8.914363,-0.153603,0.101945,0.209999,-29.043751,-4.10625,-22.35
1782300055361,-0.055035,0.351745,8.897614,-0.153603,0.101945,0.209999,-29.043751,-4.10625,-22.35
1782300055370,-0.057428,0.399601,8.79233,-0.096793,0.119049,0.200225,-28.125002,-3.975,-22.800001
1782300055378,-0.098106,0.528814,8.624833,-0.046091,0.112941,0.184953,-28.125002,-3.975,-22.800001
1782300055379,-0.098106,0.528814,8.624833,-0.046091,0.112941,0.184953,-27.4125,-2.94375,-22.481251
1782300055386,-0.098106,0.528814,8.624833,-0.020434,0.085452,0.172125,-27.4125,-2.94375,-22.481251
1782300055387,-0.200997,0.643669,8.435799,-0.020434,0.085452,0.172125,-27.4125,-2.94375,-22.481251
1782300055388,-0.200997,0.643669,8.435799,-0.020434,0.085452,0.172125,-28.25625,-4.55625,-22.950001
1782300055395,-0.275175,0.760918,8.253945,-0.0241,0.045135,0.166016,-28.25625,-4.55625,-22.950001
1782300055399,-0.275175,0.760918,8.253945,-0.0241,0.045135,0.166016,-27.975,-3.825,-22.950001
1782300055403,-0.234497,0.89013,8.093626,-0.046702,0.003596,0.164795,-27.975,-3.825,-22.950001
1782300055421,-0.16989,1.024128,8.060126,-0.068693,-0.025115,0.166016,-27.6,-3.65625,-25.387501
1782300055422,-0.124427,1.131805,8.043376,-0.069915,-0.025726,0.166016,-27.6,-3.65625,-25.387501
1782300055430,-0.071785,1.210768,8.036198,-0.048534,-0.003124,0.165406,-28.331251,-4.6875,-25.087502
1782300055439,-0.047856,1.294517,7.930914,-0.021656,0.034139,0.160519,-27.675001,-2.94375,-23.550001
1782300055446,-0.047856,1.294517,7.930914,-0.009439,0.058574,0.150745,-27.675001,-2.94375,-23.550001
1782300055447,-0.071785,1.335195,7.820844,-0.009439,0.058574,0.150745,-27.675001,-2.94375,-23.550001
1782300055449,-0.071785,1.335195,7.820844,-0.009439,0.058574,0.150745,-27.468752,-3.375,-24.918751
1782300055455,-0.069392,1.371087,7.799308,-0.018602,0.054298,0.134862,-27.468752,-3.375,-24.918751
1782300055460,-0.069392,1.371087,7.799308,-0.018602,0.054298,0.134862,-28.1625,-2.49375,-23.25
1782300055463,-0.069392,1.371087,7.799308,-0.043647,0.029863,0.115925,-28.1625,-2.49375,-23.25
1782300055464,-0.07657,1.411765,7.897414,-0.043647,0.029863,0.115925,-28.1625,-2.49375,-23.25
1782300055469,-0.07657,1.411765,7.897414,-0.043647,0.029863,0.115925,-28.087502,-3.65625,-24.018751
1782300055472,-0.055035,1.435694,8.009877,-0.068082,-0.002513,0.092713,-28.087502,-3.65625,-24.018751
1782300055479,-0.055035,1.435694,8.009877,-0.068082,-0.002513,0.092713,-28.968752,-4.5375,-24.168751
1782300055481,-0.038285,1.426122,8.158232,-0.079077,-0.027558,0.065835,-28.968752,-4.5375,-24.168751
1782300055491,-0.026321,1.380659,8.289837,-0.076023,-0.039165,0.038346,-28.556252,-3.375,-23.700001
1782300055499,-0.026321,1.380659,8.289837,-0.068082,-0.042219,0.010246,-28.556252,-3.375,-23.700001
1782300055501,-0.055035,1.359123,8.364015,-0.068082,-0.042219,0.010246,-28.462502,-4.0875,-25.987501
1782300055507,-0.055035,1.359123,8.364015,-0.058919,-0.051993,-0.016632,-28.462502,-4.0875,-25.987501
1782300055508,-0.081356,1.342373,8.469299,-0.058919,-0.051993,-0.016632,-28.462502,-4.0875,-25.987501
1782300055522,-0.083749,1.328017,8.643975,-0.047923,-0.061156,-0.037402,-27.50625,-2.79375,-24.150002
1782300055523,-0.074178,1.349552,8.830616,-0.03815,-0.05016,-0.052062,-27.50625,-2.79375,-24.150002
1782300055529,-0.074178,1.349552,8.830616,-0.03815,-0.05016,-0.052062,-27.993752,-2.34375,-23.700001
1782300055532,-0.078963,1.435694,8.940685,-0.019824,-0.011065,-0.061225,-27.993752,-2.34375,-23.700001
1782300055538,-0.078963,1.435694,8.940685,-0.019824,-0.011065,-0.061225,-28.893751,-3.675,-22.5
1782300055540,-0.078963,1.435694,8.940685,0.006444,0.021311,-0.06428,-28.893751,-3.675,-22.5
1782300055541,-0.124427,1.531407,9.017255,0.006444,0.021311,-0.06428,-28.893751,-3.675,-22.5
1782300055550,-0.138784,1.603191,9.053148,0.036987,0.03475,-0.066723,-28.218752,-4.8375,-23.71875
1782300055559,-0.138784,1.603191,9.053148,0.060811,0.041469,-0.067945,-28.218752,-4.8375,-23.71875
1782300055560,-0.145962,1.624727,9.122539,0.060811,0.041469,-0.067945,-27.243752,-2.79375,-22.950001
1782300055567,-0.177069,1.658226,9.230217,0.07486,0.041469,-0.074053,-27.243752,-2.79375,-22.950001
1782300055568,-0.177069,1.658226,9.230217,0.07486,0.041469,-0.074053,-28.331251,-2.34375,-22.331251
1782300055575,-0.177069,1.658226,9.230217,0.082802,0.038415,-0.081384,-28.331251,-2.34375,-22.331251
1782300055576,-0.229711,1.701297,9.325929,0.082802,0.038415,-0.081384,-28.331251,-2.34375,-22.331251
1782300055580,-0.229711,1.701297,9.325929,0.082802,0.038415,-0.081384,-27.900002,-3.80625,-24.918751
1782300055584,-0.229711,1.701297,9.325929,0.087689,0.037804,-0.087492,-27.900002,-3.80625,-24.918751
1782300055585,-0.284746,1.761117,9.44557,0.087689,0.037804,-0.087492,-27.900002,-3.80625,-24.918751
1782300055589,-0.284746,1.761117,9.44557,0.087689,0.037804,-0.087492,-29.38125,-1.59375,-23.681252
1782300055593,-0.311067,1.799403,9.546069,0.087078,0.028641,-0.094823,-29.38125,-1.59375,-23.681252
1782300055599,-0.311067,1.799403,9.546069,0.087078,0.028641,-0.094823,-28.06875,-3.65625,-24.618752
1782300055602,-0.33021,1.828117,9.684853,0.080969,0.010926,-0.105208,-28.06875,-3.65625,-24.618752
1782300055611,-0.311067,1.854438,9.866707,0.07425,-0.020839,-0.118647,-27.075001,-5.86875,-25.556252
1782300055630,-0.239282,1.76351,10.29263,0.066308,-0.051382,-0.131475,-28.275002,-3.075,-23.700001
1782300055635,-0.196211,1.665405,10.47927,0.040652,-0.05688,-0.148579,-28.275002,-3.075,-23.700001
1782300055639,-0.196211,1.665405,10.47927,0.040652,-0.05688,-0.148579,-28.856251,-3.95625,-23.56875
1782300055643,-0.196211,1.665405,10.47927,0.021715,-0.053826,-0.157131,-28.856251,-3.95625,-23.56875
1782300055644,-0.143569,1.540978,10.687445,0.021715,-0.053826,-0.157131,-28.856251,-3.95625,-23.56875
1782300055649,-0.143569,1.540978,10.687445,0.021715,-0.053826,-0.157131,-27.206251,-2.79375,-24.450001
1782300055652,-0.105284,1.397408,11.010477,0.006444,-0.047717,-0.165072,-27.206251,-2.79375,-24.450001
1782300055659,-0.105284,1.397408,11.010477,0.006444,-0.047717,-0.165072,-28.500002,-3.35625,-25.518751
1782300055661,-0.043071,1.287339,11.362221,0.005833,-0.033667,-0.174846,-28.500002,-3.35625,-25.518751
1782300055670,-0.043071,1.287339,11.362221,0.025991,-0.006789,-0.183398,-28.500002,-3.35625,-25.518751
1782300055671,-0.066999,1.368695,11.673289,0.025991,-0.006789,-0.183398,-28.25625,-3.075,-24.150002
1782300055680,-0.172283,1.548156,11.881464,0.068752,0.015202,-0.183398,-29.306252,-3.35625,-24.168751
1782300055687,-0.251246,1.722832,11.895821,0.13106,0.031696,-0.166905,-29.306252,-3.35625,-24.168751
1782300055688,-0.251246,1.722832,11.895821,0.13106,0.031696,-0.166905,-29.306252,-3.35625,-24.168751
1782300055695,-0.289532,1.811367,11.737895,0.188481,0.051854,-0.141249,-29.306252,-3.35625,-24.168751
1782300055700,-0.289532,1.811367,11.737895,0.188481,0.051854,-0.141249,-27.281252,-5.00625,-24.337502
1782300055704,-0.334995,1.852045,11.625432,0.213527,0.064682,-0.118036,-27.281252,-5.00625,-24.337502
1782300055709,-0.334995,1.852045,11.625432,0.213527,0.064682,-0.118036,-28.331251,-4.9875,-24.637501
1782300055713,-0.416351,1.931008,11.64936,0.195812,0.053076,-0.100932,-28.331251,-4.9875,-24.637501
1782300055727,-0.366102,2.06022,11.824036,0.13778,0.021922,-0.091158,-29.56875,-3.9375,-24.618752
1782300055730,-0.198604,1.988436,12.065712,0.050426,-0.009843,-0.086271,-27.918751,-3.35625,-24.918751
1782300055739,-0.198604,1.988436,12.065712,-0.055254,-0.047106,-0.088714,-27.918751,-3.35625,-24.918751
1782300055740,-0.002393,1.655833,12.25953,-0.055254,-0.047106,-0.088714,-28.518751,-3.35625,-25.218752
1782300055747,0.141177,1.18684,12.46292,-0.171318,-0.116134,-0.105818,-28.518751,-3.35625,-25.218752
1782300055749,0.141177,1.18684,12.46292,-0.171318,-0.116134,-0.105818,-28.087502,-4.25625,-23.56875
1782300055755,0.141177,1.18684,12.46292,-0.283106,-0.204098,-0.139416,-28.087502,-4.25625,-23.56875
1782300055756,0.20339,0.602991,12.706988,-0.283106,-0.204098,-0.139416,-28.087502,-4.25625,-23.56875
1782300055760,0.20339,0.602991,12.706988,-0.283106,-0.204098,-0.139416,-29.606251,-3.20625,-24.618752
1782300055764,0.20339,0.602991,12.706988,-0.372903,-0.294506,-0.176679,-29.606251,-3.20625,-24.618752
1782300055765,0.29671,-0.009571,13.085054,-0.372903,-0.294506,-0.176679,-29.606251,-3.20625,-24.618752
1782300055769,0.29671,-0.009571,13.085054,-0.372903,-0.294506,-0.176679,-29.306252,-2.75625,-24.918751
1782300055772,0.29671,-0.009571,13.085054,-0.402225,-0.350706,-0.208444,-29.306252,-2.75625,-24.918751
1782300055773,0.363709,-0.478565,13.448762,-0.402225,-0.350706,-0.208444,-29.306252,-2.75625,-24.918751
1782300055779,0.363709,-0.478565,13.448762,-0.402225,-0.350706,-0.208444,-29.531252,-5.41875,-24.637501
1782300055782,0.471386,-0.653241,13.594725,-0.338695,-0.36109,-0.227381,-29.531252,-5.41875,-24.637501
1782300055790,0.605384,-0.638884,13.367406,-0.162155,-0.329326,-0.236544,-28.200001,-3.80625,-25.218752
1782300055799,0.605384,-0.638884,13.367406,0.090743,-0.249913,-0.2341,-28.200001,-3.80625,-25.218752
1782300055800,0.756132,-0.521635,12.628025,0.090743,-0.249913,-0.2341,-28.856251,-4.9875,-22.5
1782300055807,0.863809,-0.258425,11.630217,0.353415,-0.157673,-0.227381,-28.856251,-4.9875,-22.5
1782300055808,0.863809,-0.258425,11.630217,0.353415,-0.157673,-0.227381,-29.925001,-3.6375,-23.550001
1782300055815,0.854238,0.160319,10.701803,0.564774,-0.080704,-0.221883,-29.925001,-3.6375,-23.550001
1782300055827,0.854238,0.634098,9.893029,0.690001,-0.022061,-0.219439,-29.2875,-3.35625,-24.468752
1782300055829,0.854238,0.634098,9.893029,0.690001,-0.022061,-0.219439,-29.2875,-4.0875,-24.168751
1782300055832,0.854238,0.634098,9.893029,0.707716,0.003596,-0.216996,-29.2875,-4.0875,-24.168751
1782300055833,0.880559,0.87338,9.246966,0.707716,0.003596,-0.216996,-29.2875,-4.0875,-24.168751
1782300055838,0.880559,0.87338,9.246966,0.707716,0.003596,-0.216996,-29.118752,-3.9375,-24.618752
1782300055841,0.866202,1.12702,8.756438,0.60448,0.003596,-0.209055,-29.118752,-3.9375,-24.618752
1782300055851,0.258425,0.875773,8.399907,0.402895,-0.004956,-0.174846,-29.512501,-5.4,-25.087502
1782300055860,1.052842,1.39023,8.174982,0.141445,-0.040386,-0.12842,-30.543751,-3.7875,-22.950001
1782300055868,1.052842,1.39023,8.174982,-0.125503,-0.078871,-0.186453,-30.543751,-3.7875,-22.950001
1782300055869,1.184447,1.574477,8.569797,-0.125503,-0.078871,-0.186453,-30.543751,-3.7875,-22.950001
1782300055870,1.184447,1.574477,8.569797,-0.125503,-0.078871,-0.186453,-29.681252,-5.55,-24.187502
1782300055876,1.184447,1.574477,8.569797,-0.31426,-0.107582,-0.209055,-29.681252,-5.55,-24.187502
1782300055877,0.808774,0.964308,9.491034,-0.31426,-0.107582,-0.209055,-29.681252,-5.55,-24.187502
1782300055879,0.808774,0.964308,9.491034,-0.31426,-0.107582,-0.209055,-29.137501,-4.9875,-23.268751
1782300055884,0.981057,0.835095,9.617854,-0.401614,-0.091088,-0.173624,-29.137501,-4.9875,-23.268751
1782300055890,0.981057,0.835095,9.617854,-0.401614,-0.091088,-0.173624,-29.700001,-4.81875,-24.487501
1782300055892,0.981057,0.835095,9.617854,-0.390619,-0.077649,-0.182787,-29.700001,-4.81875,-24.487501
1782300055893,0.789631,0.495314,9.833208,-0.390619,-0.077649,-0.182787,-29.700001,-4.81875,-24.487501
1782300055899,0.789631,0.495314,9.833208,-0.390619,-0.077649,-0.182787,-30.206251,-3.9375,-24.018751
1782300055901,0.789631,0.495314,9.833208,-0.316704,-0.052604,-0.184009,-30.206251,-3.9375,-24.018751
1782300055902,0.643669,0.308674,9.656139,-0.316704,-0.052604,-0.184009,-30.206251,-3.9375,-24.018751
1782300055909,0.643669,0.308674,9.656139,-0.316704,-0.052604,-0.184009,-29.156252,-4.6875,-22.800001
1782300055911,0.634098,0.299103,9.555641,-0.20797,-0.057491,-0.187674,-29.156252,-4.6875,-22.800001
1782300055920,0.543171,0.342174,9.311573,-0.099236,-0.072762,-0.188285,-29.156252,-4.6875,-22.800001
1782300055921,0.543171,0.342174,9.311573,-0.099236,-0.072762,-0.188285,-30.150002,-4.96875,-24.637501
1782300055940,0.291924,0.246461,8.816258,-0.001498,-0.111858,-0.176068,-29.212502,-5.26875,-24.937502
1782300055944,0.464208,0.418744,8.371193,0.10968,-0.158894,-0.132696,-29.212502,-5.26875,-24.937502
1782300055950,0.464208,0.418744,8.371193,0.10968,-0.158894,-0.132696,-28.800001,-5.71875,-23.56875
1782300055952,0.62692,0.851845,8.024234,0.089521,-0.111247,-0.134529,-28.800001,-5.71875,-23.56875
1782300055959,0.62692,0.851845,8.024234,0.089521,-0.111247,-0.134529,-30.0375,-4.0875,-24.468752
1782300055961,0.212961,0.863809,7.705988,0.008276,-0.044663,-0.157742,-30.0375,-4.0875,-24.468752
1782300055969,0.212961,0.863809,7.705988,0.008276,-0.044663,-0.157742,-29.6625,-6.3,-24.187502
1782300055970,0.167498,0.842274,7.373386,-0.103512,-0.031224,-0.136362,-29.6625,-6.3,-24.187502
1782300055980,0.167498,0.842274,7.373386,-0.247065,-0.041608,-0.134529,-29.6625,-6.3,-24.187502
1782300055981,0.174676,0.801596,7.287244,-0.247065,-0.041608,-0.134529,-30.712502,-5.53125,-25.237501
1782300055987,0.174676,0.801596,7.287244,-0.379623,-0.030002,-0.136973,-30.712502,-5.53125,-25.237501
1782300055988,0.11007,0.849452,7.426028,-0.379623,-0.030002,-0.136973,-30.712502,-5.53125,-25.237501
1782300055989,0.11007,0.849452,7.426028,-0.379623,-0.030002,-0.136973,-28.743752,-6.45,-24.337502
1782300055996,0.11007,0.849452,7.426028,-0.466977,0.000541,-0.138805,-28.743752,-6.45,-24.337502
1782300055997,0.059821,0.914058,7.670096,-0.466977,0.000541,-0.138805,-28.743752,-6.45,-24.337502
1782300055999,0.059821,0.914058,7.670096,-0.466977,0.000541,-0.138805,-29.625002,-6.28125,-25.25625
1782300056004,0.064606,0.981057,7.818451,-0.501796,0.061017,-0.14247,-29.625002,-6.28125,-25.25625
1782300056010,0.064606,0.981057,7.818451,-0.501796,0.061017,-0.14247,-31.481251,-5.23125,-24.937502
1782300056013,0.064606,1.021735,7.839986,-0.485913,0.117827,-0.151633,-31.481251,-5.23125,-24.937502
1782300056019,0.064606,1.021735,7.839986,-0.485913,0.117827,-0.151633,-29.493752,-6.15,-25.106251
1782300056021,0.09332,1.06002,7.787344,-0.433379,0.139208,-0.163851,-29.493752,-6.15,-25.106251
1782300056036,-0.004786,1.045663,7.770595,-0.34908,0.12638,-0.169959,-28.987501,-3.35625,-24.918751
1782300056040,0.239282,1.12702,7.801702,-0.240957,0.092171,-0.160796,-29.906252,-4.2375,-23.56875
1782300056047,0.437887,1.20359,7.952449,-0.124892,0.068958,-0.169348,-29.906252,-4.2375,-23.56875
1782300056048,0.437887,1.20359,7.952449,-0.124892,0.068958,-0.169348,-31.518751,-4.5,-24.937502
1782300056056,0.356531,1.299303,8.124733,-0.019213,0.098891,-0.162629,-31.518751,-4.5,-24.937502
1782300056058,0.356531,1.299303,8.124733,-0.019213,0.098891,-0.162629,-28.5375,-3.05625,-24.918751
1782300056065,0.394816,1.442872,7.990734,0.057145,0.158145,-0.132086,-28.5375,-3.05625,-24.918751
1782300056070,0.394816,1.442872,7.990734,0.057145,0.158145,-0.132086,-29.512501,-4.96875,-25.387501
1782300056073,0.394816,1.442872,7.990734,0.069363,0.194186,-0.116203,-29.512501,-4.96875,-25.387501
1782300056074,0.356531,1.438086,7.751452,0.069363,0.194186,-0.116203,-29.512501,-4.96875,-25.387501
1782300056079,0.356531,1.438086,7.751452,0.069363,0.194186,-0.116203,-30.6,-4.65,-25.087502
1782300056082,0.282353,1.481157,7.851951,0.022326,0.197851,-0.098488,-30.6,-4.65,-25.087502
1782300056089,0.282353,1.481157,7.851951,0.022326,0.197851,-0.098488,-29.231251,-4.81875,-25.237501
1782300056090,0.272782,1.512264,8.110375,-0.052199,0.194186,-0.083216,-29.231251,-4.81875,-25.237501
1782300056100,0.272782,1.512264,8.110375,-0.122449,0.196018,-0.068556,-29.231251,-4.81875,-25.237501
1782300056101,0.208176,1.452443,8.423835,-0.122449,0.196018,-0.068556,-30.581251,-4.65,-25.387501
1782300056109,0.172283,1.37348,8.722938,-0.163377,0.191742,-0.056338,-29.587502,-3.9375,-24.018751
1782300056116,0.212961,1.292124,8.990934,-0.166431,0.194796,-0.049008,-29.587502,-3.9375,-24.018751
1782300056119,0.212961,1.292124,8.990934,-0.166431,0.194796,-0.049008,-29.250002,-4.0875,-24.918751
1782300056125,0.239282,1.225125,9.136897,-0.143218,0.216788,-0.042289,-29.250002,-4.0875,-24.918751
1782300056139,0.239282,1.225125,9.136897,-0.107788,0.240611,-0.032515,-28.837502,-3.65625,-24.31875
1782300056140,0.251246,1.20359,9.227824,-0.107788,0.240611,-0.032515,-29.475,-5.7,-25.856251
1782300056143,0.263211,1.239482,9.318751,-0.072969,0.250385,-0.017243,-29.475,-5.7,-25.856251
1782300056149,0.263211,1.239482,9.318751,-0.072969,0.250385,-0.017243,-27.993752,-3.9375,-26.906252
1782300056150,0.272782,1.306481,9.455142,-0.032652,0.244277,0.004137,-27.993752,-3.9375,-26.906252
1782300056160,0.272782,1.306481,9.455142,0.019272,0.233281,0.028572,-27.993752,-3.9375,-26.906252
1782300056161,0.27996,1.40698,9.555641,0.019272,0.233281,0.028572,-30.750002,-3.76875,-25.5375
1782300056167,0.208176,1.524228,9.603497,0.078526,0.230227,0.049952,-30.750002,-3.76875,-25.5375
1782300056169,0.208176,1.524228,9.603497,0.078526,0.230227,0.049952,-30.750002,-3.76875,-25.5375
1782300056176,0.208176,1.524228,9.603497,0.137169,0.224118,0.071332,-30.750002,-3.76875,-25.5375
1782300056177,0.122034,1.658226,9.534105,0.137169,0.224118,0.071332,-30.750002,-3.76875,-25.5375
1782300056179,0.122034,1.658226,9.534105,0.137169,0.224118,0.071332,-27.806252,-5.86875,-26.306252
1782300056184,0.045464,1.753939,9.431214,0.18726,0.214955,0.093323,-27.806252,-5.86875,-26.306252
1782300056189,0.045464,1.753939,9.431214,0.18726,0.214955,0.093323,-29.475,-4.95,-26.456251
1782300056193,-0.040678,1.85683,9.369,0.213527,0.194186,0.112871,-29.475,-4.95,-26.456251
1782300056198,-0.040678,1.85683,9.369,0.213527,0.194186,0.112871,-29.19375,-5.55,-25.237501
1782300056201,-0.105284,1.947758,9.361822,0.212916,0.161199,0.128143,-29.19375,-5.55,-25.237501
1782300056209,-0.105284,1.947758,9.361822,0.212916,0.161199,0.128143,-28.81875,-4.6875,-24.018751
1782300056210,-0.150748,2.067399,9.467106,0.190314,0.131877,0.143414,-28.81875,-4.6875,-24.018751
1782300056219,-0.150748,2.067399,9.467106,0.157938,0.10561,0.153188,-28.81875,-4.6875,-24.018751
1782300056220,-0.157926,2.143969,9.620246,0.157938,0.10561,0.153188,-29.268751,-4.81875,-24.168751
1782300056228,-0.153141,2.165504,9.826029,0.12373,0.072623,0.156853,-29.268751,-4.81875,-24.168751
1782300056229,-0.153141,2.165504,9.826029,0.12373,0.072623,0.156853,-29.531252,-4.21875,-25.837502
1782300056244,-0.086142,2.057827,10.048562,0.090743,0.032917,0.158686,-29.531252,-4.21875,-25.837502
1782300056245,-0.007178,1.90708,10.306986,0.057145,0.001763,0.156853,-29.025002,-5.7,-26.156252
1782300056250,-0.007178,1.90708,10.306986,0.057145,0.001763,0.156853,-29.025002,-5.4,-26.456251
1782300056253,0.07657,1.708475,10.618054,0.027213,-0.029391,0.151356,-29.025002,-5.4,-26.456251
1782300056259,0.07657,1.708475,10.618054,0.027213,-0.029391,0.151356,-30.393751,-5.53125,-26.00625
1782300056261,0.07657,1.708475,10.618054,0.007054,-0.061156,0.139749,-30.393751,-5.53125,-26.00625
1782300056262,0.131605,1.473979,11.048762,0.007054,-0.061156,0.139749,-30.393751,-5.53125,-26.00625
1782300056269,0.131605,1.473979,11.048762,0.007054,-0.061156,0.139749,-29.606251,-3.9375,-23.56875
1782300056270,0.181855,1.251446,11.515362,0.006444,-0.09903,0.122645,-29.606251,-3.9375,-23.56875
1782300056280,0.181855,1.251446,11.515362,0.032711,-0.136292,0.103708,-29.606251,-3.9375,-23.56875
1782300056281,0.227318,1.12702,11.97957,0.032711,-0.136292,0.103708,-29.475,-6.13125,-25.856251
1782300056287,0.227318,1.12702,11.97957,0.096852,-0.153396,0.085382,-29.475,-6.13125,-25.856251
1782300056288,0.236889,1.160519,12.3026,0.096852,-0.153396,0.085382,-29.925001,-5.55,-26.00625
1782300056296,0.236889,1.160519,12.3026,0.195812,-0.142401,0.074998,-29.925001,-5.55,-26.00625
1782300056297,0.200997,1.354338,12.391135,0.195812,-0.142401,0.074998,-29.925001,-5.55,-26.00625
1782300056299,0.200997,1.354338,12.391135,0.195812,-0.142401,0.074998,-29.250002,-4.5375,-24.468752
1782300056304,0.200997,1.354338,12.391135,0.319817,-0.09903,0.074387,-29.250002,-4.5375,-24.468752
1782300056305,0.162712,1.598405,12.159031,0.319817,-0.09903,0.074387,-29.250002,-4.5375,-24.468752
1782300056310,0.162712,1.598405,12.159031,0.319817,-0.09903,0.074387,-29.531252,-4.21875,-25.837502
1782300056313,0.133998,1.691726,11.725931,0.429773,-0.031224,0.087826,-29.531252,-4.21875,-25.837502
1782300056319,0.133998,1.691726,11.725931,0.429773,-0.031224,0.087826,-29.043751,-5.41875,-25.387501
1782300056322,-0.014357,1.696511,11.295223,0.485972,0.03475,0.108595,-29.043751,-5.41875,-25.387501
1782300056337,-0.272782,1.816152,11.106189,0.476199,0.062239,0.131197,-29.137501,-3.9375,-24.31875
1782300056339,-0.272782,1.816152,11.106189,0.418777,0.061017,0.14769,-29.137501,-3.9375,-24.31875
1782300056340,-0.524028,2.009971,11.201902,0.418777,0.061017,0.14769,-29.081251,-4.2375,-25.387501
1782300056347,-0.662812,2.065006,11.309579,0.340587,0.05613,0.159908,-29.081251,-4.2375,-25.387501
1782300056348,-0.662812,2.065006,11.309579,0.340587,0.05613,0.159908,-29.475,-6.73125,-25.106251
1782300056356,-0.660419,1.885544,11.314365,0.23674,0.044524,0.169071,-29.475,-6.73125,-25.106251
1782300056358,-0.660419,1.885544,11.314365,0.23674,0.044524,0.169071,-30.056252,-3.7875,-23.71875
1782300056365,-0.588634,1.545763,11.273687,0.107847,0.032306,0.178845,-30.056252,-3.7875,-23.71875
1782300056370,-0.588634,1.545763,11.273687,0.107847,0.032306,0.178845,-29.718752,-4.51875,-24.468752
1782300056373,-0.490529,1.064806,11.328722,-0.033873,-0.006789,0.186175,-29.718752,-4.51875,-24.468752
1782300056378,-0.490529,1.064806,11.328722,-0.033873,-0.006789,0.186175,-29.512501,-6.75,-24.0375
1782300056381,-0.490529,1.064806,11.328722,-0.168264,-0.077038,0.188008,-29.512501,-6.75,-24.0375
1782300056382,-0.449851,0.567099,11.656539,-0.168264,-0.077038,0.188008,-29.512501,-6.75,-24.0375
1782300056389,-0.449851,0.567099,11.656539,-0.168264,-0.077038,0.188008,-29.081251,-5.41875,-24.337502
1782300056390,-0.459422,0.172283,12.161424,-0.270278,-0.169279,0.184953,-29.081251,-5.41875,-24.337502
1782300056400,-0.457029,-0.062213,12.561025,-0.313039,-0.263963,0.179455,-28.837502,-4.25625,-23.56875
1782300056408,-0.452243,-0.196211,12.659132,-0.28555,-0.338488,0.177623,-28.837502,-4.25625,-23.56875
1782300056409,-0.452243,-0.196211,12.659132,-0.28555,-0.338488,0.177623,-29.118752,-5.41875,-23.56875
1782300056417,-0.392423,-0.18664,12.314565,-0.194531,-0.362312,0.183121,-29.118752,-5.41875,-23.56875
1782300056419,-0.392423,-0.18664,12.314565,-0.194531,-0.362312,0.183121,-29.531252,-4.66875,-25.087502
1782300056425,-0.356531,-0.071785,11.608682,-0.07358,-0.352538,0.197781,-29.531252,-4.66875,-25.087502
1782300056430,-0.356531,-0.071785,11.608682,-0.07358,-0.352538,0.197781,-31.237501,-4.5,-24.168751
1782300056433,-0.356531,-0.071785,11.608682,0.036376,-0.329936,0.221605,-31.237501,-4.5,-24.168751
1782300056434,-0.315853,0.148355,10.802301,0.036376,-0.329936,0.221605,-31.237501,-4.5,-24.168751
1782300056438,-0.315853,0.148355,10.802301,0.036376,-0.329936,0.221605,-30.543751,-3.3375,-23.400002
1782300056453,-0.191426,0.691526,9.586747,0.142056,-0.279845,0.275361,-30.093752,-3.35625,-23.400002
1782300056460,-0.191426,0.691526,9.586747,0.115788,-0.237696,0.299796,-30.093752,-3.35625,-23.400002
1782300056461,-0.141177,0.904487,9.191931,0.115788,-0.237696,0.299796,-29.737501,-4.0875,-24.168751
1782300056468,-0.083749,1.036092,9.048362,0.033322,-0.19799,0.318122,-29.268751,-5.56875,-23.418751
1782300056476,-0.232104,1.019342,9.022041,-0.087019,-0.158283,0.326063,-29.268751,-5.56875,-23.418751
1782300056478,-0.232104,1.019342,9.022041,-0.087019,-0.158283,0.326063,-29.868752,-4.66875,-24.31875
1782300056485,-0.004786,0.880559,8.962221,-0.227518,-0.138125,0.345611,-29.868752,-4.66875,-24.31875
1782300056489,-0.004786,0.880559,8.962221,-0.227518,-0.138125,0.345611,-30.825001,-4.51875,-22.650002
1782300056494,0.191426,0.57667,9.153646,-0.365573,-0.154618,0.323619,-30.825001,-4.51875,-22.650002
1782300056499,0.191426,0.57667,9.153646,-0.365573,-0.154618,0.323619,-29.325001,-4.55625,-22.35
1782300056502,-0.081356,0.37328,9.634603,-0.458425,-0.174166,0.308348,-29.325001,-4.55625,-22.35
1782300056509,-0.081356,0.37328,9.634603,-0.458425,-0.174166,0.308348,-31.481251,-3.6375,-22.050001
1782300056510,-0.081356,0.37328,9.634603,-0.466366,-0.151564,0.320565,-31.481251,-3.6375,-22.050001
1782300056511,-0.131605,0.284746,9.823637,-0.466366,-0.151564,0.320565,-31.481251,-3.6375,-22.050001
1782300056520,-0.066999,0.01675,9.636997,-0.421773,-0.11369,0.301628,-28.856251,-3.20625,-24.0
1782300056528,-0.057428,-0.157926,9.548461,-0.358243,-0.082536,0.283302,-28.856251,-3.20625,-24.0
1782300056529,-0.057428,-0.157926,9.548461,-0.358243,-0.082536,0.283302,-30.243752,-2.90625,-23.550001
1782300056536,-0.057428,-0.157926,9.548461,-0.283106,-0.044663,0.271085,-30.243752,-2.90625,-23.550001
1782300056537,-0.009571,-0.09332,9.543676,-0.283106,-0.044663,0.271085,-30.243752,-2.90625,-23.550001
1782300056539,-0.009571,-0.09332,9.543676,-0.283106,-0.044663,0.271085,-30.88125,-2.30625,-22.931252
1782300056553,0.043071,0.090927,9.067504,-0.209803,0.009094,0.261311,-29.156252,-2.90625,-24.618752
1782300056554,0.043071,0.090927,9.067504,-0.15116,0.042691,0.255814,-29.156252,-2.90625,-24.618752
1782300056559,0.043071,0.090927,9.067504,-0.15116,0.042691,0.255814,-30.675001,-3.9375,-23.56875
1782300056562,0.07657,0.20339,8.825829,-0.113286,0.040859,0.24604,-30.675001,-3.9375,-23.56875
1782300056568,0.07657,0.20339,8.825829,-0.113286,0.040859,0.24604,-30.88125,-3.05625,-22.331251
1782300056570,0.107677,0.332602,8.734902,-0.08763,0.025587,0.233212,-30.88125,-3.05625,-22.331251
1782300056580,0.16989,0.507278,8.62244,-0.058308,0.023143,0.216718,-30.88125,-3.05625,-22.331251
1782300056581,0.16989,0.507278,8.62244,-0.058308,0.023143,0.216718,-31.331251,-2.75625,-22.63125
1782300056589,0.217747,0.662812,8.402299,-0.028376,0.027419,0.200225,-30.262501,-2.175,-23.550001
1782300056597,0.236889,0.823131,8.189338,-0.003941,0.037804,0.18251,-30.262501,-2.175,-23.550001
1782300056599,0.236889,0.823131,8.189338,-0.003941,0.037804,0.18251,-30.731251,-2.90625,-22.800001
1782300056605,0.251246,0.945165,8.005091,0.008276,0.053076,0.166016,-30.731251,-2.90625,-22.800001
1782300056611,0.251246,0.945165,8.005091,0.008276,0.053076,0.166016,-30.262501,-3.20625,-22.5
1782300056613,0.251246,0.945165,8.005091,0.003389,0.079954,0.153799,-30.262501,-3.20625,-22.5
1782300056614,0.241675,1.055235,7.890236,0.003389,0.079954,0.153799,-30.262501,-3.20625,-22.5
1782300056619,0.241675,1.055235,7.890236,0.003389,0.079954,0.153799,-30.900002,-2.325,-22.331251
1782300056622,0.241675,1.055235,7.890236,-0.01738,0.112941,0.145858,-30.900002,-2.325,-22.331251
1782300056623,0.232104,1.143769,7.784952,-0.01738,0.112941,0.145858,-30.900002,-2.325,-22.331251
1782300056629,0.232104,1.143769,7.784952,-0.01738,0.112941,0.145858,-29.118752,-1.3125,-22.63125
1782300056630,0.232104,1.143769,7.784952,-0.050367,0.145927,0.138527,-29.118752,-1.3125,-22.63125
1782300056631,0.253639,1.196411,7.741881,-0.050367,0.145927,0.138527,-29.118752,-1.3125,-22.63125
1782300056639,0.253639,1.196411,7.741881,-0.082743,0.163031,0.129364,-29.118752,-1.3125,-22.63125
1782300056640,0.239282,1.215554,7.784952,-0.082743,0.163031,0.129364,-29.118752,-1.3125,-22.63125
1782300056641,0.239282,1.215554,7.784952,-0.082743,0.163031,0.129364,-29.118752,-1.3125,-22.63125
1782300056655,0.208176,1.179662,7.954842,-0.099847,0.162421,0.11898,-29.400002,-2.775,-21.88125
1782300056656,0.208176,1.179662,7.954842,-0.099236,0.146538,0.108595,-29.400002,-2.775,-21.88125
1782300056657,0.189033,1.155733,8.155839,-0.099236,0.146538,0.108595,-29.400002,-2.775,-21.88125
1782300056660,0.189033,1.155733,8.155839,-0.099236,0.146538,0.108595,-28.612501,-1.59375,-23.681252
1782300056665,0.232104,1.15334,8.313765,-0.079077,0.123325,0.096378,-28.612501,-1.59375,-23.681252
1782300056669,0.232104,1.15334,8.313765,-0.079077,0.123325,0.096378,-30.13125,-2.775,-22.331251
1782300056673,0.282353,1.150948,8.395121,-0.046091,0.090339,0.079884,-30.13125,-2.775,-22.331251
1782300056679,0.282353,1.150948,8.395121,-0.046091,0.090339,0.079884,-29.231251,-1.14375,-23.981251
1782300056682,0.325424,1.160519,8.435799,-0.012493,0.0488,0.060948,-29.231251,-1.14375,-23.981251
1782300056688,0.325424,1.160519,8.435799,-0.012493,0.0488,0.060948,-29.887501,-0.8625,-22.612501
1782300056690,0.33021,1.162912,8.462121,0.016828,0.00665,0.040178,-29.887501,-0.8625,-22.612501
1782300056701,0.301496,1.177269,8.498013,0.038819,-0.025726,0.021241,-28.612501,-1.59375,-24.150002
1782300056711,0.272782,1.18684,8.488441,0.051037,-0.040997,0.00597,-29.043751,-3.075,-22.950001
1782300056718,0.224925,1.222732,8.481263,0.051648,-0.053826,-0.009302,-29.043751,-3.075,-22.950001
1782300056719,0.224925,1.222732,8.481263,0.051648,-0.053826,-0.009302,-30.581251,-1.575,-23.681252
1782300056728,0.129212,1.265803,8.533906,0.043706,-0.058712,-0.0148,-30.581251,-1.575,-23.681252
1782300056730,0.129212,1.265803,8.533906,0.043706,-0.058712,-0.0148,-29.75625,-0.7125,-22.012501
1782300056736,0.095713,1.284946,8.624833,0.035765,-0.052604,-0.013578,-29.75625,-0.7125,-22.012501
1782300056739,0.095713,1.284946,8.624833,0.035765,-0.052604,-0.013578,-29.19375,-1.875,-24.6
1782300056744,0.107677,1.234697,8.734902,0.033932,-0.028169,-0.016021,-29.19375,-1.875,-24.6
1782300056749,0.107677,1.234697,8.734902,0.033932,-0.028169,-0.016021,-31.106251,-1.44375,-21.712502
1782300056760,0.055035,1.213161,9.053148,0.072417,0.04208,-0.02946,-29.681252,-2.475,-22.481251
1782300056769,0.0,1.304088,9.201502,0.115788,0.074456,-0.039845,-27.562502,-2.0625,-23.38125
1782300056776,0.0,1.380659,9.294822,0.170766,0.085452,-0.050841,-27.562502,-2.0625,-23.38125
1782300056778,0.0,1.380659,9.294822,0.170766,0.085452,-0.050841,-29.437502,-0.5625,-22.9125
1782300056785,0.007178,1.493121,9.316358,0.226966,0.085452,-0.063058,-29.437502,-0.5625,-22.9125
1782300056790,0.007178,1.493121,9.316358,0.226966,0.085452,-0.063058,-29.38125,-2.04375,-22.931252
1782300056794,0.009571,1.557728,9.359429,0.269726,0.09156,-0.074053,-29.38125,-2.04375,-22.931252
1782300056800,0.009571,1.557728,9.359429,0.269726,0.09156,-0.074053,-28.368752,-2.3625,-21.581251
1782300056802,0.009571,1.557728,9.359429,0.284387,0.100112,-0.081384,-28.368752,-2.3625,-21.581251
1782300056803,0.007178,1.651048,9.380964,0.284387,0.100112,-0.081384,-28.368752,-2.3625,-21.581251
1782300056812,-0.026321,1.722832,9.395321,0.267894,0.109886,-0.087492,-29.700001,-1.89375,-22.481251
1782300056820,-0.055035,1.773082,9.584354,0.227577,0.108054,-0.086271,-28.63125,-2.04375,-22.931252
1782300056830,-0.062213,1.751546,9.950456,0.179929,0.106832,-0.082606,-30.018751,-1.44375,-22.481251
1782300056836,-0.050249,1.739582,10.290237,0.137169,0.11966,-0.080773,-30.018751,-1.44375,-22.481251
1782300056839,-0.050249,1.739582,10.290237,0.137169,0.11966,-0.080773,-29.962502,0.16875,-21.09375
1782300056845,-0.050249,1.739582,10.290237,0.09563,0.131267,-0.080162,-29.962502,0.16875,-21.09375
1782300056846,-0.064606,1.667797,10.567804,0.09563,0.131267,-0.080162,-29.962502,0.16875,-21.09375
1782300056858,-0.064606,1.667797,10.567804,0.09563,0.131267,-0.080162,-30.88125,-2.30625,-22.931252
1782300056859,-0.050249,1.509871,10.900406,0.047372,0.130656,-0.079551,-30.88125,-2.30625,-22.931252
1782300056860,-0.050249,1.509871,10.900406,0.047372,0.130656,-0.079551,-30.750002,-1.875,-22.78125
1782300056862,-0.09332,1.347159,11.316758,0.000946,0.123325,-0.077719,-30.750002,-1.875,-22.78125
1782300056869,-0.09332,1.347159,11.316758,0.000946,0.123325,-0.077719,-28.725,-0.88125,-21.09375
1782300056870,-0.09332,1.347159,11.316758,-0.023489,0.117827,-0.076497,-28.725,-0.88125,-21.09375
1782300056871,-0.141177,1.162912,11.713966,-0.023489,0.117827,-0.076497,-28.725,-0.88125,-21.09375
1782300056880,-0.090927,0.9667,12.080068,-0.012493,0.114773,-0.080773,-28.331251,-2.34375,-22.63125
1782300056889,-0.090927,0.9667,12.080068,0.036987,0.115384,-0.089936,-28.331251,-2.34375,-22.63125
1782300056890,-0.050249,0.844666,12.434206,0.036987,0.115384,-0.089936,-28.331251,-2.04375,-22.931252
1782300056896,-0.050249,0.844666,12.434206,0.130449,0.11966,-0.09971,-28.331251,-2.04375,-22.931252
1782300056897,-0.150748,0.90688,12.596918,0.130449,0.11966,-0.09971,-28.331251,-2.04375,-22.931252
1782300056899,-0.150748,0.90688,12.596918,0.130449,0.11966,-0.09971,-28.35,-2.0625,-22.331251
1782300056905,-0.150748,0.90688,12.596918,0.266672,0.123325,-0.106429,-28.35,-2.0625,-22.331251
1782300056906,-0.22014,1.12702,12.517954,0.266672,0.123325,-0.106429,-28.35,-2.0625,-22.331251
1782300056909,-0.22014,1.12702,12.517954,0.266672,0.123325,-0.106429,-29.062502,-2.04375,-23.700001
1782300056914,-0.20339,1.399801,12.14946,0.409614,0.120271,-0.116814,-29.062502,-2.04375,-23.700001
1782300056919,-0.20339,1.399801,12.14946,0.409614,0.120271,-0.116814,-28.650002,-1.6125,-22.931252
1782300056923,-0.196211,1.648655,11.627824,0.518959,0.09828,-0.132086,-28.650002,-1.6125,-22.931252
1782300056929,-0.196211,1.648655,11.627824,0.518959,0.09828,-0.132086,-28.481251,-2.19375,-22.78125
1782300056931,-0.227318,1.921437,11.101404,0.562941,0.03475,-0.151022,-28.481251,-2.19375,-22.78125
1782300056939,-0.227318,1.921437,11.101404,0.521403,-0.047106,-0.174846,-28.481251,-2.19375,-22.78125
1782300056940,-0.198604,2.220539,10.811872,0.521403,-0.047106,-0.174846,-28.518751,-1.9125,-21.712502
1782300056950,-0.18664,2.423929,10.484055,0.405338,-0.111858,-0.209665,-28.950001,-2.49375,-22.03125
1782300056956,-0.18664,2.423929,10.484055,0.20864,-0.170501,-0.246317,-28.950001,-2.49375,-22.03125
1782300056957,0.004786,2.29711,10.546269,0.20864,-0.170501,-0.246317,-28.950001,-2.49375,-22.03125
1782300056970,0.083749,2.081756,10.531912,-0.044869,-0.184551,-0.27625,-28.200001,-3.24375,-20.981251
1782300056974,0.083749,2.081756,10.531912,-0.301432,-0.188216,-0.297019,-28.200001,-3.24375,-20.981251
1782300056975,0.165105,1.713261,10.811872,-0.301432,-0.188216,-0.297019,-28.200001,-3.24375,-20.981251
1782300056979,0.165105,1.713261,10.811872,-0.301432,-0.188216,-0.297019,-30.187502,-2.34375,-21.112501
1782300056982,0.165105,1.713261,10.811872,-0.525009,-0.159505,-0.313512,-30.187502,-2.34375,-21.112501
1782300056983,0.256032,1.177269,11.142082,-0.525009,-0.159505,-0.313512,-30.187502,-2.34375,-21.112501
1782300056989,0.256032,1.177269,11.142082,-0.525009,-0.159505,-0.313512,-27.731251,-2.2125,-22.78125
1782300056991,0.256032,1.177269,11.142082,-0.699716,-0.130184,-0.320843,-27.731251,-2.2125,-22.78125
1782300056992,0.392423,0.595813,11.625432,-0.699716,-0.130184,-0.320843,-27.731251,-2.2125,-22.78125
1782300057001,0.531207,0.198604,12.25953,-0.781572,-0.097197,-0.31901,-29.268751,-2.19375,-22.03125
1782300057010,0.612563,-0.069392,12.55624,-0.728427,-0.040997,-0.313512,-30.393751,-0.7125,-20.94375
1782300057017,0.600598,-0.174676,12.348064,-0.557995,0.02803,-0.295187,-30.393751,-0.7125,-20.94375
1782300057018,0.600598,-0.174676,12.348064,-0.557995,0.02803,-0.295187,-29.306252,-1.4625,-21.4125
1782300057025,0.600598,-0.174676,12.348064,-0.311206,0.0769,-0.271363,-29.306252,-1.4625,-21.4125
1782300057026,0.622134,-0.145962,11.833607,-0.311206,0.0769,-0.271363,-29.306252,-1.4625,-21.4125
1782300057030,0.622134,-0.145962,11.833607,-0.311206,0.0769,-0.271363,-29.231251,-2.475,-22.78125
1782300057034,0.643669,-0.038285,11.192331,-0.048534,0.101945,-0.249983,-29.231251,-2.475,-22.78125
1782300057039,0.643669,-0.038285,11.192331,-0.048534,0.101945,-0.249983,-28.237501,-1.9125,-21.4125
1782300057043,0.648455,0.160319,10.565411,0.171377,0.12638,-0.231046,-28.237501,-1.9125,-21.4125
1782300057049,0.648455,0.160319,10.565411,0.171377,0.12638,-0.231046,-26.85,-1.63125,-22.331251
1782300057051,0.629312,0.428315,9.938492,0.301491,0.145927,-0.215774,-26.85,-1.63125,-22.331251
1782300057076,0.521635,0.914058,9.081861,0.242237,0.090339,-0.19134,-29.343752,-2.775,-23.400002
1782300057077,0.495314,1.002593,8.971792,0.10968,0.052465,-0.182177,-29.343752,-2.775,-23.400002
1782300057078,0.495314,1.002593,8.971792,0.10968,0.052465,-0.182177,-29.137501,-2.0625,-21.112501
1782300057085,0.480957,0.911665,8.935899,-0.044258,0.027419,-0.1779,-29.137501,-2.0625,-21.112501
1782300057088,0.480957,0.911665,8.935899,-0.044258,0.027419,-0.1779,-28.406252,-2.3625,-20.512501
1782300057094,0.521635,0.768096,8.976577,-0.187201,0.0207,-0.173624,-28.406252,-2.3625,-20.512501
1782300057100,0.521635,0.768096,8.976577,-0.187201,0.0207,-0.173624,-26.868752,-2.38125,-20.8125
1782300057102,0.55992,0.564706,9.057933,-0.298989,0.027419,-0.17057,-26.868752,-2.38125,-20.8125
1782300057109,0.55992,0.564706,9.057933,-0.298989,0.027419,-0.17057,-26.868752,-2.38125,-20.8125
1782300057111,0.619741,0.337388,9.251751,-0.365573,0.032306,-0.164461,-26.868752,-2.38125,-20.8125
1782300057119,0.619741,0.337388,9.251751,-0.365573,0.032306,-0.164461,-28.987501,-2.2125,-20.962502
1782300057120,0.658026,0.179462,9.498212,-0.379623,0.035361,-0.161407,-28.987501,-2.2125,-20.962502
1782300057130,0.648455,0.100499,9.672888,-0.352134,0.045745,-0.161407,-27.0375,-1.93125,-20.962502
1782300057138,0.583849,0.040678,9.68246,-0.300211,0.068958,-0.159575,-27.0375,-1.93125,-20.962502
1782300057139,0.583849,0.040678,9.68246,-0.300211,0.068958,-0.159575,-27.0375,-1.93125,-20.962502
1782300057145,0.583849,0.040678,9.68246,-0.247676,0.085452,-0.153466,-27.0375,-1.93125,-20.962502
1782300057146,0.492921,-0.007178,9.500605,-0.247676,0.085452,-0.153466,-27.0375,-1.93125,-20.962502
1782300057149,0.492921,-0.007178,9.500605,-0.247676,0.085452,-0.153466,-27.487501,-0.73125,-22.462502
1782300057154,0.397209,-0.019143,9.311573,-0.208581,0.087895,-0.143081,-27.487501,-0.73125,-22.462502
1782300057172,0.200997,0.035892,9.117754,-0.169485,0.07018,-0.118036,-26.643751,-2.2125,-23.550001
1782300057179,0.200997,0.035892,9.117754,-0.169485,0.07018,-0.118036,-27.6,-1.63125,-22.331251
1782300057180,0.162712,0.09332,9.057933,-0.142607,0.085452,-0.09971,-27.6,-1.63125,-22.331251
1782300057190,0.179462,0.155533,8.890436,-0.102901,0.112941,-0.085049,-28.368752,-0.88125,-22.931252
1782300057197,0.181855,0.208176,8.699009,-0.056475,0.135543,-0.07894,-28.368752,-0.88125,-22.931252
1782300057198,0.181855,0.208176,8.699009,-0.056475,0.135543,-0.07894,-26.906252,-1.35,-20.8125
1782300057206,0.155533,0.301496,8.493228,-0.017991,0.138597,-0.082606,-26.906252,-1.35,-20.8125
1782300057209,0.155533,0.301496,8.493228,-0.017991,0.138597,-0.082606,-26.75625,-0.45,-22.012501
1782300057214,0.074178,0.409173,8.342479,0.008887,0.109275,-0.094823,-26.75625,-0.45,-22.012501
1782300057220,0.074178,0.409173,8.342479,0.008887,0.109275,-0.094823,-27.000002,-1.48125,-22.78125
1782300057223,0.002393,0.543171,8.239588,0.020493,0.06285,-0.109484,-27.000002,-1.48125,-22.78125
1782300057229,0.002393,0.543171,8.239588,0.020493,0.06285,-0.109484,-27.431252,-3.24375,-21.731251
1782300057231,-0.090927,0.68674,8.143875,0.023548,0.007261,-0.123534,-27.431252,-3.24375,-21.731251
1782300057239,-0.090927,0.68674,8.143875,0.023548,0.007261,-0.123534,-26.94375,-2.2125,-23.550001
1782300057240,-0.119641,0.849452,7.988341,0.028435,-0.038554,-0.129642,-26.94375,-2.2125,-23.550001
1782300057250,-0.083749,0.978664,7.842379,0.038819,-0.058102,-0.127199,-26.94375,-2.2125,-23.550001
1782300057251,-0.083749,0.978664,7.842379,0.038819,-0.058102,-0.127199,-27.731251,-2.2125,-22.481251
1782300057257,-0.083749,0.978664,7.842379,0.063254,-0.047717,-0.118647,-27.731251,-2.2125,-22.481251
1782300057274,-0.038285,1.237089,7.696417,0.091354,-0.005567,-0.105208,-26.512501,-2.08125,-22.931252
1782300057275,0.0,1.320838,7.66531,0.107847,0.050632,-0.091158,-26.512501,-2.08125,-22.931252
1782300057280,0.0,1.320838,7.66531,0.107847,0.050632,-0.091158,-27.337502,-0.6,-22.3125
1782300057283,-0.0335,1.323231,7.734702,0.095019,0.097058,-0.077108,-27.337502,-0.6,-22.3125
1782300057289,-0.0335,1.323231,7.734702,0.095019,0.097058,-0.077108,-25.218752,-1.51875,-21.4125
1782300057291,-0.095713,1.354338,7.871093,0.057145,0.119049,-0.061836,-25.218752,-1.51875,-21.4125
1782300057299,-0.095713,1.354338,7.871093,0.057145,0.119049,-0.061836,-26.906252,-0.9,-21.09375
1782300057300,-0.141177,1.342373,8.07209,0.002168,0.11966,-0.045343,-26.906252,-0.9,-21.09375
1782300057310,-0.138784,1.311267,8.323337,-0.049145,0.109275,-0.028849,-25.950001,-1.5,-22.481251
1782300057318,-0.112463,1.272982,8.581762,-0.079688,0.097669,-0.012356,-25.950001,-1.5,-22.481251
1782300057322,-0.112463,1.272982,8.581762,-0.079688,0.097669,-0.012356,-26.400002,-1.93125,-22.03125
1782300057342,-0.059821,1.222732,8.974185,-0.063806,0.114162,0.024907,-26.831251,-0.58125,-24.13125
1782300057348,-0.0335,1.22034,9.060326,-0.0241,0.125158,0.045676,-25.931252,-2.23125,-22.03125
1782300057351,0.0,1.225125,9.060326,0.019883,0.125769,0.068278,-25.931252,-2.23125,-22.03125
1782300057358,0.0,1.225125,9.060326,0.019883,0.125769,0.068278,-24.750002,-0.61875,-22.9125
1782300057359,0.0,1.225125,9.060326,0.055313,0.108665,0.087215,-24.750002,-0.61875,-22.9125
1782300057360,0.031107,1.210768,9.074683,0.055313,0.108665,0.087215,-24.750002,-0.61875,-22.9125
1782300057373,0.057428,1.196411,9.120146,0.077915,0.0769,0.101265,-28.031252,-2.0625,-22.63125
1782300057377,0.052642,1.20359,9.208681,0.090132,0.032306,0.110428,-28.031252,-2.0625,-22.63125
1782300057378,0.052642,1.20359,9.208681,0.090132,0.032306,0.110428,-25.987501,-0.01875,-22.762501
1782300057385,0.069392,1.227518,9.304394,0.104182,-0.01473,0.112871,-25.987501,-0.01875,-22.762501
1782300057388,0.069392,1.227518,9.304394,0.104182,-0.01473,0.112871,-26.38125,-1.18125,-23.231251
1782300057395,0.105284,1.294517,9.364214,0.124951,-0.058102,0.111039,-26.38125,-1.18125,-23.231251
1782300057400,0.105284,1.294517,9.364214,0.124951,-0.058102,0.111039,-25.950001,-1.5,-22.481251
1782300057404,0.105284,1.294517,9.364214,0.157327,-0.091088,0.107984,-25.950001,-1.5,-22.481251
1782300057405,0.162712,1.399801,9.366607,0.157327,-0.091088,0.107984,-25.950001,-1.5,-22.481251
1782300057409,0.162712,1.399801,9.366607,0.157327,-0.091088,0.107984,-27.50625,-0.45,-21.712502
1782300057411,0.239282,1.521835,9.340287,0.198866,-0.113079,0.108595,-27.50625,-0.45,-21.712502
1782300057418,0.239282,1.521835,9.340287,0.198866,-0.113079,0.108595,-25.950001,-1.5,-22.012501
1782300057420,0.315853,1.619941,9.340287,0.23674,-0.118577,0.109817,-25.950001,-1.5,-22.012501
1782300057430,0.315853,1.619941,9.340287,0.261174,-0.119799,0.116536,-25.950001,-1.5,-22.012501
1782300057431,0.382852,1.679762,9.395321,0.261174,-0.119799,0.116536,-25.1625,-1.5,-23.53125
1782300057437,0.366102,1.720439,9.536498,0.261174,-0.113079,0.128143,-25.1625,-1.5,-23.53125
1782300057439,0.366102,1.720439,9.536498,0.261174,-0.113079,0.128143,-25.050001,-0.91875,-22.931252
1782300057446,0.356531,1.751546,9.763816,0.240405,-0.111858,0.14036,-25.050001,-0.91875,-22.931252
1782300057449,0.356531,1.751546,9.763816,0.240405,-0.111858,0.14036,-26.718752,-1.5,-21.712502
1782300057454,0.356531,1.751546,9.763816,0.211694,-0.117966,0.151356,-26.718752,-1.5,-21.712502
1782300057455,0.378066,1.696511,10.113168,0.211694,-0.117966,0.151356,-26.718752,-1.5,-21.712502
1782300057460,0.378066,1.696511,10.113168,0.211694,-0.117966,0.151356,-24.900002,-0.46875,-22.762501
1782300057463,0.428315,1.603191,10.515162,0.18787,-0.117355,0.163573,-24.900002,-0.46875,-22.762501
1782300057476,0.457029,1.490728,10.909978,0.170766,-0.109414,0.178845,-26.437502,-0.46875,-22.012501
1782300057479,0.457029,1.490728,10.909978,0.170766,-0.109414,0.178845,-26.19375,-0.3375,-20.493752
1782300057481,0.4666,1.342373,11.254545,0.165268,-0.076428,0.200836,-26.19375,-0.3375,-20.493752
1782300057490,0.437887,1.201197,11.474684,0.162825,-0.031224,0.223438,-25.06875,-0.61875,-22.612501
1782300057498,0.354138,1.129412,11.702002,0.168934,-0.003735,0.243596,-26.718752,-0.45,-22.762501
1782300057506,0.354138,1.129412,11.702002,0.186649,-0.004956,0.2607,-26.718752,-0.45,-22.762501
1782300057507,0.20339,1.115055,11.874285,0.186649,-0.004956,0.2607,-26.718752,-0.45,-22.762501
1782300057509,0.20339,1.115055,11.874285,0.186649,-0.004956,0.2607,-25.687502,-0.46875,-22.012501
1782300057514,0.20339,1.115055,11.874285,0.226355,-0.02878,0.27475,-25.687502,-0.46875,-22.012501
1782300057515,0.100499,1.172483,11.931714,0.226355,-0.02878,0.27475,-25.687502,-0.46875,-22.012501
1782300057519,0.100499,1.172483,11.931714,0.226355,-0.02878,0.27475,-28.575001,0.0,-22.012501
1782300057525,0.023928,1.244268,11.85275,0.286831,-0.049549,0.282081,-28.575001,0.0,-22.012501
1782300057528,0.023928,1.244268,11.85275,0.286831,-0.049549,0.282081,-25.200001,-1.95,-21.712502
1782300057532,-0.088534,1.378266,11.70918,0.359523,-0.058712,0.291855,-25.200001,-1.95,-21.712502
1782300057539,-0.088534,1.378266,11.70918,0.359523,-0.058712,0.291855,-25.81875,0.13125,-23.362501
1782300057540,-0.088534,1.378266,11.70918,0.427329,-0.062988,0.301628,-25.81875,0.13125,-23.362501
1782300057541,-0.241675,1.545763,11.484255,0.427329,-0.062988,0.301628,-25.81875,0.13125,-23.362501
1782300057551,-0.430708,1.718047,11.266509,0.469479,-0.069097,0.30957,-26.1,-0.6,-22.9125
1782300057558,-0.650848,2.007578,11.125332,0.471923,-0.083758,0.318733,-26.1,-0.6,-22.9125
1782300057559,-0.650848,2.007578,11.125332,0.471923,-0.083758,0.318733,-26.156252,1.1625,-23.362501
1782300057567,-0.827917,2.289931,10.893228,0.432216,-0.095364,0.335226,-26.156252,1.1625,-23.362501
1782300057569,-0.827917,2.289931,10.893228,0.432216,-0.095364,0.335226,-25.031252,-0.61875,-23.681252
1782300057574,-0.904487,2.416751,10.613268,0.340587,-0.110636,0.350498,-25.031252,-0.61875,-23.681252
1782300057585,-0.818345,2.292324,10.38595,0.18726,-0.140568,0.362715,-26.700001,-0.45,-23.231251
1782300057589,-0.818345,2.292324,10.38595,0.18726,-0.140568,0.362715,-26.700001,-0.45,-23.231251
1782300057592,-0.648455,1.942972,10.285451,-0.021656,-0.19127,0.369434,-26.700001,-0.45,-23.231251
1782300057599,-0.648455,1.942972,10.285451,-0.021656,-0.19127,0.369434,-24.806252,0.1125,-21.84375
1782300057600,-0.382852,1.426122,10.677874,-0.2715,-0.265185,0.364547,-24.806252,0.1125,-21.84375
1782300057610,-0.382852,1.426122,10.677874,-0.521344,-0.318941,0.354774,-24.806252,0.1125,-21.84375
1782300057611,-0.205783,0.928415,11.297616,-0.521344,-0.318941,0.354774,-24.31875,-0.6375,-22.3125
1782300057618,-0.291924,0.392423,12.05614,-0.710101,-0.393466,0.329728,-24.31875,-0.6375,-22.3125
1782300057619,-0.291924,0.392423,12.05614,-0.710101,-0.393466,0.329728,-26.025002,-0.0375,-21.393751
1782300057627,-0.291924,0.392423,12.05614,-0.804785,-0.452109,0.299796,-26.025002,-0.0375,-21.393751
1782300057628,-0.083749,-0.153141,12.553847,-0.804785,-0.452109,0.299796,-26.025002,-0.0375,-21.393751
1782300057629,-0.083749,-0.153141,12.553847,-0.804785,-0.452109,0.299796,-25.856251,0.1125,-21.84375
1782300057635,0.07657,-0.454636,12.982162,-0.782183,-0.48815,0.263144,-25.856251,0.1125,-21.84375
1782300057640,0.07657,-0.454636,12.982162,-0.782183,-0.48815,0.263144,-25.200001,-0.01875,-23.512501
1782300057644,0.177069,-0.567099,12.89602,-0.628856,-0.455164,0.23932,-25.200001,-0.01875,-23.512501
1782300057650,0.177069,-0.567099,12.89602,-0.628856,-0.455164,0.23932,-24.356251,-0.3375,-21.543751
1782300057652,0.177069,-0.567099,12.89602,-0.396727,-0.394077,0.224659,-24.356251,-0.3375,-21.543751
1782300057653,0.246461,-0.468993,12.053747,-0.396727,-0.394077,0.224659,-24.356251,-0.3375,-21.543751
1782300057659,0.246461,-0.468993,12.053747,-0.396727,-0.394077,0.224659,-25.63125,1.14375,-20.475
1782300057660,0.246461,-0.468993,12.053747,-0.162766,-0.354371,0.213664,-25.63125,1.14375,-20.475
1782300057661,0.320638,-0.265603,11.082262,-0.162766,-0.354371,0.213664,-25.63125,1.14375,-20.475
1782300057670,0.449851,0.055035,10.424235,0.033322,-0.304891,0.214886,-25.63125,1.14375,-20.475
1782300057671,0.449851,0.055035,10.424235,0.033322,-0.304891,0.214886,-25.762501,1.29375,-21.375
1782300057687,0.535992,0.808774,9.548461,0.254455,-0.062378,0.241764,-27.562502,1.03125,-21.69375
1782300057689,0.535992,0.808774,9.548461,0.254455,-0.062378,0.241764,-25.687502,-0.46875,-22.012501
1782300057695,0.495314,1.122234,9.194324,0.275224,0.051854,0.255203,-25.687502,-0.46875,-22.012501
1782300057700,0.495314,1.122234,9.194324,0.275224,0.051854,0.255203,-25.950001,1.14375,-20.475
1782300057703,0.449851,1.289731,8.952649,0.233074,0.122714,0.265587,-25.950001,1.14375,-20.475
1782300057709,0.449851,1.289731,8.952649,0.233074,0.122714,0.265587,-25.218752,-0.0375,-22.762501
1782300057712,0.392423,1.301695,8.665511,0.140223,0.166086,0.275361,-25.218752,-0.0375,-22.762501
1782300057718,0.392423,1.301695,8.665511,0.140223,0.166086,0.275361,-25.668751,2.60625,-21.075001
1782300057720,0.31346,1.179662,8.529119,0.009498,0.164864,0.285135,-25.668751,2.60625,-21.075001
1782300057730,0.200997,0.969093,8.691831,-0.126725,0.129434,0.294298,-24.206251,0.54375,-21.993752
1782300057740,0.105284,0.765703,9.005291,-0.233626,0.098891,0.300407,-26.062502,0.5625,-20.625
1782300057746,0.105284,0.765703,9.005291,-0.286771,0.088506,0.304072,-26.062502,0.5625,-20.625
1782300057748,0.059821,0.581456,9.246966,-0.286771,0.088506,0.304072,-26.062502,0.5625,-20.625
1782300057749,0.059821,0.581456,9.246966,-0.286771,0.088506,0.304072,-25.06875,2.45625,-20.925001
1782300057755,0.059821,0.581456,9.246966,-0.291048,0.085452,0.304683,-25.06875,2.45625,-20.925001
1782300057756,0.090927,0.449851,9.325929,-0.291048,0.085452,0.304683,-25.06875,2.45625,-20.925001
1782300057760,0.090927,0.449851,9.325929,-0.291048,0.085452,0.304683,-25.800001,2.475,-21.375
1782300057764,0.131605,0.349352,9.21586,-0.267224,0.097669,0.301628,-25.800001,2.475,-21.375
1782300057769,0.131605,0.349352,9.21586,-0.267224,0.097669,0.301628,-24.243752,2.025,-22.44375
1782300057773,0.143569,0.275175,9.093826,-0.237902,0.106832,0.299185,-24.243752,2.025,-22.44375
1782300057788,0.18664,0.27996,9.007684,-0.222631,0.110497,0.298574,-24.356251,1.575,-22.893751
1782300057790,0.234497,0.291924,9.000506,-0.219576,0.106832,0.296741,-25.387501,3.7875,-21.65625
1782300057799,0.234497,0.291924,9.000506,-0.213468,0.095836,0.291244,-26.737501,3.35625,-21.056252
1782300057800,0.260818,0.303888,9.060326,-0.213468,0.095836,0.291244,-26.737501,3.35625,-21.056252
1782300057807,0.291924,0.308674,9.110575,-0.185368,0.095225,0.284524,-26.737501,3.35625,-21.056252
1782300057808,0.291924,0.308674,9.110575,-0.185368,0.095225,0.284524,-24.581251,2.75625,-21.975
1782300057814,0.291924,0.308674,9.110575,-0.135888,0.114773,0.273529,-24.581251,2.75625,-21.975
1782300057815,0.342174,0.31346,9.091433,-0.135888,0.114773,0.273529,-24.581251,2.75625,-21.975
1782300057819,0.342174,0.31346,9.091433,-0.135888,0.114773,0.273529,-23.643751,2.90625,-23.34375
1782300057824,0.356531,0.323031,8.97897,-0.071747,0.130045,0.255203,-23.643751,2.90625,-23.34375
1782300057829,0.356531,0.323031,8.97897,-0.071747,0.130045,0.255203,-24.862501,2.60625,-22.275002
1782300057832,0.356531,0.323031,8.97897,-0.003941,0.123325,0.228325,-24.862501,2.60625,-22.275002
1782300057833,0.282353,0.382852,8.828222,-0.003941,0.123325,0.228325,-24.862501,2.60625,-22.275002
1782300057839,0.282353,0.382852,8.828222,-0.003941,0.123325,0.228325,-25.331251,2.75625,-21.975
1782300057841,0.196211,0.476172,8.636797,0.062032,0.088506,0.202668,-25.331251,2.75625,-21.975
1782300057850,0.165105,0.569492,8.433406,0.125562,0.038415,0.178845,-24.450001,3.9375,-22.275002
1782300057859,0.165105,0.569492,8.433406,0.184205,0.004818,0.155021,-24.450001,3.9375,-22.275002
1782300057861,0.210568,0.665205,8.241981,0.184205,0.004818,0.155021,-25.668751,2.90625,-21.525002
1782300057868,0.275175,0.787239,8.009877,0.225133,0.00665,0.132419,-25.668751,2.90625,-21.525002
1782300057870,0.275175,0.787239,8.009877,0.225133,0.00665,0.132419,-24.862501,2.625,-22.59375
1782300057875,0.306281,0.942772,7.796916,0.242237,0.024365,0.111649,-24.862501,2.625,-22.59375
1782300057880,0.306281,0.942772,7.796916,0.242237,0.024365,0.111649,-24.431252,3.3375,-22.275002
1782300057892,0.320638,1.270589,7.519348,0.215359,0.038415,0.082939,-24.393751,1.875,-22.293751
1782300057899,0.320638,1.270589,7.519348,0.215359,0.038415,0.082939,-26.56875,3.075,-21.375
1782300057901,0.356531,1.418944,7.493027,0.186649,0.035361,0.0695,-26.56875,3.075,-21.375
1782300057910,0.380459,1.507478,7.526527,0.150608,0.031696,0.051174,-23.38125,2.5875,-21.825001
1782300057919,0.401994,1.562513,7.634204,0.110291,0.021311,0.028572,-24.13125,2.15625,-21.525002
1782300057927,0.366102,1.59362,7.79213,0.062643,-0.00068,0.003526,-24.13125,2.15625,-21.525002
1782300057929,0.366102,1.59362,7.79213,0.062643,-0.00068,0.003526,-25.200001,2.90625,-21.825001
1782300057935,0.366102,1.59362,7.79213,0.007665,-0.030613,-0.021519,-25.200001,2.90625,-21.825001
1782300057936,0.361316,1.574477,7.964413,0.007665,-0.030613,-0.021519,-25.200001,2.90625,-21.825001
1782300057939,0.361316,1.574477,7.964413,0.007665,-0.030613,-0.021519,-25.050001,2.75625,-21.675001
1782300057944,0.318245,1.497907,8.186945,-0.047313,-0.061156,-0.045954,-25.050001,2.75625,-21.675001
1782300057950,0.318245,1.497907,8.186945,-0.047313,-0.061156,-0.045954,-22.44375,1.6875,-21.675001
1782300057953,0.294317,1.418944,8.498013,-0.089462,-0.088034,-0.068556,-22.44375,1.6875,-21.675001
1782300057959,0.294317,1.418944,8.498013,-0.089462,-0.088034,-0.068556,-23.681252,2.5875,-21.825001
1782300057961,0.294317,1.335195,8.813865,-0.112064,-0.095975,-0.08566,-23.681252,2.5875,-21.825001
1782300057969,0.294317,1.335195,8.813865,-0.106566,-0.077038,-0.096045,-23.681252,2.5875,-21.825001
1782300057970,0.282353,1.205983,9.153646,-0.106566,-0.077038,-0.096045,-24.281252,3.05625,-22.425001
1782300057979,0.282353,1.205983,9.153646,-0.078467,-0.036721,-0.097266,-24.281252,3.05625,-22.425001
1782300057980,0.27996,1.131805,9.392929,-0.078467,-0.036721,-0.097266,-24.281252,3.05625,-22.425001
1782300057981,0.27996,1.131805,9.392929,-0.078467,-0.036721,-0.097266,-24.375002,1.875,-22.893751
1782300057997,0.27996,1.131805,9.392929,-0.028376,0.011537,-0.094212,-24.375002,1.875,-22.893751
1782300057998,0.205783,1.158126,9.723138,0.036376,0.051243,-0.089936,-23.418751,3.31875,-21.056252
1782300058001,0.205783,1.158126,9.723138,0.036376,0.051243,-0.089936,-25.63125,2.625,-21.825001
1782300058004,0.179462,1.234697,9.761423,0.106625,0.072013,-0.083827,-25.63125,2.625,-21.825001
1782300058010,0.179462,1.234697,9.761423,0.106625,0.072013,-0.083827,-23.231251,2.4375,-21.375
1782300058012,0.143569,1.363909,9.701602,0.171377,0.070791,-0.076497,-23.231251,2.4375,-21.375
1782300058019,0.143569,1.363909,9.701602,0.171377,0.070791,-0.076497,-23.981251,1.25625,-20.175001
1782300058021,0.07657,1.512264,9.579568,0.222079,0.059795,-0.070999,-23.981251,1.25625,-20.175001
1782300058030,0.026321,1.61037,9.47907,0.252011,0.040859,-0.067334,-23.493752,2.75625,-23.19375
1782300058041,0.01675,1.70369,9.44557,0.257509,0.033528,-0.066112,-24.450001,2.60625,-21.525002
1782300058047,0.028714,1.773082,9.471892,0.238572,0.038415,-0.06489,-24.450001,2.60625,-21.525002
1782300058048,0.028714,1.773082,9.471892,0.238572,0.038415,-0.06489,-23.962502,2.45625,-21.975
1782300058055,0.038285,1.830509,9.531712,0.203753,0.050021,-0.066112,-23.962502,2.45625,-21.975
1782300058059,0.038285,1.830509,9.531712,0.203753,0.050021,-0.066112,-23.962502,2.45625,-21.975
1782300058064,-0.047856,1.87358,9.677674,0.164658,0.051854,-0.07161,-23.962502,2.45625,-21.975
1782300058069,-0.047856,1.87358,9.677674,0.164658,0.051854,-0.07161,-23.175001,2.45625,-23.19375
1782300058072,-0.088534,1.861616,9.897814,0.129838,0.040248,-0.080773,-23.175001,2.45625,-23.19375
1782300058079,-0.088534,1.861616,9.897814,0.129838,0.040248,-0.080773,-23.175001,2.45625,-23.19375
1782300058080,-0.069392,1.825724,10.096418,0.106015,0.024365,-0.09299,-23.175001,2.45625,-23.19375
1782300058090,-0.057428,1.715654,10.342879,0.093797,0.010926,-0.112538,-24.0375,1.875,-23.6625
1782300058099,-0.028714,1.588834,10.668303,0.091965,0.000541,-0.132696,-22.21875,0.825,-23.362501
1782300058107,-0.007178,1.4668,10.972191,0.093797,0.002985,-0.154077,-22.21875,0.825,-23.362501
1782300058109,-0.007178,1.4668,10.972191,0.093797,0.002985,-0.154077,-22.237501,2.5875,-24.093752
1782300058115,-0.023928,1.337588,11.21626,0.096852,0.010926,-0.171181,-22.237501,2.5875,-24.093752
1782300058121,-0.023928,1.337588,11.21626,0.096852,0.010926,-0.171181,-22.575001,1.55625,-22.293751
1782300058123,-0.023928,1.337588,11.21626,0.096241,0.023143,-0.181566,-22.575001,1.55625,-22.293751
1782300058124,-0.035892,1.258625,11.424435,0.096241,0.023143,-0.181566,-22.575001,1.55625,-22.293751
1782300058129,-0.035892,1.258625,11.424435,0.096241,0.023143,-0.181566,-23.362501,2.5875,-22.275002
1782300058132,-0.117248,1.265803,11.608682,0.102349,0.044524,-0.185842,-23.362501,2.5875,-22.275002
1782300058139,-0.117248,1.265803,11.608682,0.102349,0.044524,-0.185842,-22.575001,2.5875,-23.34375
1782300058141,-0.198604,1.426122,11.690038,0.135336,0.064071,-0.181566,-22.575001,2.5875,-23.34375
1782300058150,-0.263211,1.600798,11.68286,0.204364,0.086673,-0.172403,-23.34375,2.60625,-22.575001
1782300058159,-0.241675,1.787439,11.541683,0.289885,0.106221,-0.16324,-22.856251,1.85625,-22.893751
1782300058167,-0.133998,2.012364,11.381364,0.362578,0.108665,-0.157742,-22.856251,1.85625,-22.893751
1782300058168,-0.133998,2.012364,11.381364,0.362578,0.108665,-0.157742,-21.9375,1.25625,-22.743752
1782300058176,-0.090927,2.277967,11.240187,0.394954,0.088506,-0.157131,-21.9375,1.25625,-22.743752
1782300058180,-0.090927,2.277967,11.240187,0.394954,0.088506,-0.157131,-23.56875,0.84375,-23.362501
1782300058184,-0.009571,2.445465,11.144475,0.373573,0.054298,-0.160185,-23.56875,0.84375,-23.362501
1782300058189,-0.009571,2.445465,11.144475,0.373573,0.054298,-0.160185,-22.425001,2.7375,-23.19375
1782300058195,0.086142,2.459822,10.965013,0.286831,0.01337,-0.165683,-22.425001,2.7375,-23.19375
1782300058199,0.086142,2.459822,10.965013,0.286831,0.01337,-0.165683,-23.175001,2.45625,-23.19375
1782300058201,0.184247,2.309074,10.921942,0.141445,-0.02145,-0.171792,-23.175001,2.45625,-23.19375
1782300058209,0.184247,2.309074,10.921942,0.141445,-0.02145,-0.171792,-21.806252,2.5875,-23.34375
1782300058210,0.287139,2.002793,11.039191,-0.037539,-0.054436,-0.185231,-21.806252,2.5875,-23.34375
1782300058219,0.399601,1.579263,11.240187,-0.221409,-0.079482,-0.204168,-23.268751,0.39375,-22.9125
1782300058227,0.397209,1.062413,11.520148,-0.374125,-0.094753,-0.221883,-23.268751,0.39375,-22.9125
1782300058228,0.397209,1.062413,11.520148,-0.374125,-0.094753,-0.221883,-22.3125,2.1375,-21.525002
1782300058235,0.433101,0.600598,11.859929,-0.474307,-0.103306,-0.231657,-22.3125,2.1375,-21.525002
1782300058238,0.433101,0.600598,11.859929,-0.474307,-0.103306,-0.231657,-22.725,1.25625,-21.993752
1782300058244,0.512064,0.244068,12.252351,-0.487746,-0.06421,-0.237154,-22.725,1.25625,-21.993752
1782300058249,0.512064,0.244068,12.252351,-0.487746,-0.06421,-0.237154,-23.925001,2.45625,-23.493752
1782300058252,0.595813,0.047856,12.319351,-0.404058,0.009704,-0.233489,-23.925001,2.45625,-23.493752
1782300058258,0.595813,0.047856,12.319351,-0.404058,0.009704,-0.233489,-22.44375,3.0375,-23.19375
1782300058261,0.62692,0.026321,11.936499,-0.238513,0.093393,-0.227381,-22.44375,3.0375,-23.19375
1782300058268,0.62692,0.026321,11.936499,-0.238513,0.093393,-0.227381,-22.275002,1.8375,-22.293751
1782300058269,0.62692,0.026321,11.936499,-0.039371,0.163031,-0.224937,-22.275002,1.8375,-22.293751
1782300058270,0.591027,0.117248,11.355043,-0.039371,0.163031,-0.224937,-22.275002,1.8375,-22.293751
1782300058281,0.531207,0.33021,10.795123,0.146332,0.19724,-0.22005,-22.5375,1.125,-22.893751
1782300058287,0.5001,0.600598,10.328522,0.284998,0.212512,-0.219439,-22.5375,1.125,-22.893751
1782300058288,0.5001,0.600598,10.328522,0.284998,0.212512,-0.219439,-22.78125,1.14375,-24.88125
1782300058295,0.385244,0.79681,9.830815,0.284998,0.212512,-0.219439,-22.78125,1.14375,-24.88125
1782300058296,0.385244,0.79681,9.830815,0.348528,0.219842,-0.221272,-22.78125,1.14375,-24.88125
1782300058298,0.385244,0.79681,9.830815,0.348528,0.219842,-0.221272,-23.325001,1.125,-21.84375
1782300058304,0.239282,0.981057,9.428821,0.327148,0.202738,-0.218218,-23.325001,1.125,-21.84375
